"trial_type","trial_index","time_elapsed","internal_node_id","code","subject","workerId","hitId","assignmentId","catk_n","catk_i","catk_b","catk2_n","catk2_i","catk2_b","success","timeout","failed_images","failed_audio","failed_video","rt","stimulus","response","current_training_images","current_training_label","shuffled_sampling_images","sampling_image_words","shuffled_test_images","current_category_label_level","current_category_kind","current_category_training_level","current_alternate_training_label","sampled_image","sampled_label","label_consistent","selection_array","selection_index","rt_array","selection_type_array","final_choice_array","final_rt","view_history","question_order"
"pavlovia","0","9","0.0-0.0","TsuWwJvCatActhNhqdYMKsE","p111231","","","","","","","","","","","","","","","","","","","","","","","","","","","","","","","","","","","","",""
"preload","1","256","0.0-1.0","TsuWwJvCatActhNhqdYMKsE","p111231","","","","","","","","","","true","false","[]","[]","[]","","","","","","","","","","","","","","","","","","","","","","",""
"fullscreen","2","2965","0.0-2.0","TsuWwJvCatActhNhqdYMKsE","p111231","","","","","","","","","","true","","","","","","","","","","","","","","","","","","","","","","","","","","",""
"html-button-response","3","11075","0.0-3.0","TsuWwJvCatActhNhqdYMKsE","p111231","","","","","","","","","","","","","","","8106.899999976158","<div id=""container""><p><b><font size=""4.5"">Welcome to the experiment!</font></b></p><p><font size=""4.5"">In this experiment, we are interested in how people learn the meanings of new words.</font></p><p>Imagine you are learning a brand new language. Someone tells you a new word for the first time. Can you figure out what the word means? In this experiment, you will be shown objects together with their names in a made-up language. Your job is to learn these new words. </p><p><font size=""4.5"">Here's how the experiment will work. First, you will see a new word and three examples of the word. Next, we will check your memory for this new word. Then, you will see objects which may or may not also match the new word. You will get a chance to choose one of these objects and learn its name. Finally, you will select all of the objects that you think match the new word. <b>Remember, your job is to figure out what the new word means by learning which objects match the new word and which objects do NOT match the new word.</b></p><p><font size=""4.5"">This process will repeat, with a brand new word. You will learn three words total following these steps. Do your best to figure out what each word means. <b>The top 50 participants (out of 200) who do the best at identifying the meanings of new words will receive a $0.20 bonus in addition to the base compensation for the task.</b></p></font></p><p><i><font size=""4.5"">Click Next to begin the experiment and learn the first word!</font></i></p></div>","0","","","","","","","","","","","","","","","","","","","",""
"html-button-response","4","15344","0.0-4.0","TsuWwJvCatActhNhqdYMKsE","p111231","","","","","","","","","","","","","","","4266.799999952316","<div id=""container""><p><b><font size=""4.5"">Your job is to figure out which objects are roozers and which are not.</font></b><style=""text-align:center;"" /p><p><b><font size=""4.5"">This is a roozer.</font></b><style=""text-align:center;"" /p><div class=""row""><div class=""column""><figure style=""opacity:0""><img src=""stims/veg_c1_sub1.jpg"" style=""width:70%""><figcaption style=""font-size:24px"">roozer</figcaption></figure></div><div class=""column""><figure><img src=""stims/veg_c1_sub1.jpg"" style=""width:50%""><figcaption style=""font-size:24px"">roozer</figcaption></figure></div><div class=""column""><figure style=""opacity:0""><img src=""stims/veg_c1_sub1.jpg"" style=""width:70%""><figcaption style=""font-size:24px"">roozer</figcaption></figure></div></div><p><b><font size=""4.5"">On the next page, we will check your memory of this new word. Make sure you look at the example and the new word carefully.</font></b><style=""text-align:center;"" /p><p><i>Click Next when you are ready to continue.</font></i><style=""text-align:center;"" /p></div>","0","[""stims/veg_c1_sub1.jpg"",""stims/veg_c1_sup1.jpg"",""stims/veg_c1_sup2.jpg""]","roozer","[""stims/veh_c2_sub4.jpg"",""stims/veh_c2_bas3.jpg"",""stims/ani_c3_bas3.jpg"",""stims/veh_c2_sup3.jpg"",""stims/veg_c1_sup3.jpg"",""stims/veg_c1_bas3.jpg"",""stims/ani_c3_sub4.jpg"",""stims/veg_c1_sub4.jpg"",""stims/ani_c3_sup3.jpg""]","[""NOT a roozer"",""NOT a roozer"",""NOT a roozer"",""NOT a roozer"",""roozer"",""roozer"",""NOT a roozer"",""roozer"",""NOT a roozer""]","[""stims/veh_c2_bas3.jpg"",""stims/veg_c1_sup6.jpg"",""stims/ani_c3_sup4.jpg"",""stims/veh_c2_sub4.jpg"",""stims/ani_c3_sub5.jpg"",""stims/veh_c2_sup6.jpg"",""stims/ani_c3_sup5.jpg"",""stims/veg_c1_bas4.jpg"",""stims/veg_c1_sup3.jpg"",""stims/veg_c1_sup4.jpg"",""stims/ani_c3_sup3.jpg"",""stims/ani_c3_sup6.jpg"",""stims/veg_c1_bas3.jpg"",""stims/ani_c3_bas3.jpg"",""stims/veg_c1_sup5.jpg"",""stims/veh_c2_sup4.jpg"",""stims/veh_c2_sup3.jpg"",""stims/veh_c2_sup5.jpg"",""stims/veg_c1_sub5.jpg"",""stims/veh_c2_bas4.jpg"",""stims/veg_c1_sub4.jpg"",""stims/ani_c3_bas4.jpg"",""stims/veh_c2_sub5.jpg"",""stims/ani_c3_sub4.jpg""]","broad","vegetables","broad","NOT a roozer","","","","","","","","","","",""
"survey-html-form","5","17521","0.0-5.0","TsuWwJvCatActhNhqdYMKsE","p111231","","","","","","","","","","","","","","","2168.399999976158","","{""name_check"":""roozer""}","[""stims/veg_c1_sub1.jpg"",""stims/veg_c1_sup1.jpg"",""stims/veg_c1_sup2.jpg""]","roozer","[""stims/veh_c2_sub4.jpg"",""stims/veh_c2_bas3.jpg"",""stims/ani_c3_bas3.jpg"",""stims/veh_c2_sup3.jpg"",""stims/veg_c1_sup3.jpg"",""stims/veg_c1_bas3.jpg"",""stims/ani_c3_sub4.jpg"",""stims/veg_c1_sub4.jpg"",""stims/ani_c3_sup3.jpg""]","[""NOT a roozer"",""NOT a roozer"",""NOT a roozer"",""NOT a roozer"",""roozer"",""roozer"",""NOT a roozer"",""roozer"",""NOT a roozer""]","[""stims/veh_c2_bas3.jpg"",""stims/veg_c1_sup6.jpg"",""stims/ani_c3_sup4.jpg"",""stims/veh_c2_sub4.jpg"",""stims/ani_c3_sub5.jpg"",""stims/veh_c2_sup6.jpg"",""stims/ani_c3_sup5.jpg"",""stims/veg_c1_bas4.jpg"",""stims/veg_c1_sup3.jpg"",""stims/veg_c1_sup4.jpg"",""stims/ani_c3_sup3.jpg"",""stims/ani_c3_sup6.jpg"",""stims/veg_c1_bas3.jpg"",""stims/ani_c3_bas3.jpg"",""stims/veg_c1_sup5.jpg"",""stims/veh_c2_sup4.jpg"",""stims/veh_c2_sup3.jpg"",""stims/veh_c2_sup5.jpg"",""stims/veg_c1_sub5.jpg"",""stims/veh_c2_bas4.jpg"",""stims/veg_c1_sub4.jpg"",""stims/ani_c3_bas4.jpg"",""stims/veh_c2_sub5.jpg"",""stims/ani_c3_sub4.jpg""]","broad","vegetables","broad","NOT a roozer","","","","","","","","","","",""
"html-button-response-cols","6","25034","0.0-6.0","TsuWwJvCatActhNhqdYMKsE","p111231","","","","","","","","","","","","","","","7508.199999928474","<div id=""container""><p><b><font size=""4.5"">Your job is to figure out which objects are roozers and which are not.</font></b><style=""text-align:center;"" /p><p><b><font size=""4.5"">This is a roozer.</font></b><style=""text-align:center;"" /p><div class=""row""><div class=""column""><figure style=""opacity:0""><img src=""stims/veg_c1_sub1.jpg"" style=""width:70%""><figcaption style=""font-size:24px"">roozer</figcaption></figure></div><div class=""column""><figure><img src=""stims/veg_c1_sub1.jpg"" style=""width:50%""><figcaption style=""font-size:24px"">roozer</figcaption></figure></div><div class=""column""><figure style=""opacity:0""><img src=""stims/veg_c1_sub1.jpg"" style=""width:70%""><figcaption style=""font-size:24px"">roozer</figcaption></figure></div></div><p><b><font size=""4.5"">Which of these nine objects would you like to learn the name of? You can only make one choice, so choose carefully!</font></b></p><p><i><font size=""4.5"">Click on the object that you would like to know the name of.</font></i><style=""text-align:center;"" /p>","4","[""stims/veg_c1_sub1.jpg"",""stims/veg_c1_sup1.jpg"",""stims/veg_c1_sup2.jpg""]","roozer","[""stims/veh_c2_sub4.jpg"",""stims/veh_c2_bas3.jpg"",""stims/ani_c3_bas3.jpg"",""stims/veh_c2_sup3.jpg"",""stims/veg_c1_sup3.jpg"",""stims/veg_c1_bas3.jpg"",""stims/ani_c3_sub4.jpg"",""stims/veg_c1_sub4.jpg"",""stims/ani_c3_sup3.jpg""]","[""NOT a roozer"",""NOT a roozer"",""NOT a roozer"",""NOT a roozer"",""roozer"",""roozer"",""NOT a roozer"",""roozer"",""NOT a roozer""]","[""stims/veh_c2_bas3.jpg"",""stims/veg_c1_sup6.jpg"",""stims/ani_c3_sup4.jpg"",""stims/veh_c2_sub4.jpg"",""stims/ani_c3_sub5.jpg"",""stims/veh_c2_sup6.jpg"",""stims/ani_c3_sup5.jpg"",""stims/veg_c1_bas4.jpg"",""stims/veg_c1_sup3.jpg"",""stims/veg_c1_sup4.jpg"",""stims/ani_c3_sup3.jpg"",""stims/ani_c3_sup6.jpg"",""stims/veg_c1_bas3.jpg"",""stims/ani_c3_bas3.jpg"",""stims/veg_c1_sup5.jpg"",""stims/veh_c2_sup4.jpg"",""stims/veh_c2_sup3.jpg"",""stims/veh_c2_sup5.jpg"",""stims/veg_c1_sub5.jpg"",""stims/veh_c2_bas4.jpg"",""stims/veg_c1_sub4.jpg"",""stims/ani_c3_bas4.jpg"",""stims/veh_c2_sub5.jpg"",""stims/ani_c3_sub4.jpg""]","broad","vegetables","broad","NOT a roozer","","","","","","","","","","",""
"html-button-response","7","26967","0.0-7.0","TsuWwJvCatActhNhqdYMKsE","p111231","","","","","","","","","","","","","","","1929.5","<div id=""container""><p><b><font size=""4.5"">The image you selected is a <span style=""color:#ff0000""><u>roozer</u></span>.</font></b><style=""text-align:center;"" /p><div class=""row""><div class=""column""><figure style=""opacity:0""><img src=""stims/veg_c1_sub1.jpg"" style=""width:70%""><figcaption style=""font-size:24px"">roozer</figcaption></figure></div><div class=""column""><figure><img src=""stims/veg_c1_sub1.jpg"" style=""width:70%""><figcaption style=""font-size:24px"">roozer</figcaption></figure></div><div class=""column""><figure><img src=""stims/veg_c1_sup3.jpg"" style=""width:57%; border: 5px solid #ff0000; padding: 6px""><figcaption style=""font-size:24px;color:#ff0000"">roozer</figcaption></figure></div><div class=""column""><figure style=""opacity:0""><img src=""stims/veg_c1_sub1.jpg"" style=""width:70%""><figcaption style=""font-size:24px"">roozer</figcaption></figure></div></div class=""column""></div class=""column""></div class=""column""></div class=""column""><div id=""container""><p><b><font size=""4.5"">Next, you will see a set of 24 new objects and decide which of them are roozers.</font></b><div id=""container""><p><b><font size=""4.5"">Your goal is to select <u>all</u> of the roozers.</font></b><p><i><font size=""4.5"">Click Next to continue.</font></i><style=""text-align:center;"" /p><style=""text-align:center;"" /p></div>","0","[""stims/veg_c1_sub1.jpg"",""stims/veg_c1_sup1.jpg"",""stims/veg_c1_sup2.jpg""]","roozer","[""stims/veh_c2_sub4.jpg"",""stims/veh_c2_bas3.jpg"",""stims/ani_c3_bas3.jpg"",""stims/veh_c2_sup3.jpg"",""stims/veg_c1_sup3.jpg"",""stims/veg_c1_bas3.jpg"",""stims/ani_c3_sub4.jpg"",""stims/veg_c1_sub4.jpg"",""stims/ani_c3_sup3.jpg""]","[""NOT a roozer"",""NOT a roozer"",""NOT a roozer"",""NOT a roozer"",""roozer"",""roozer"",""NOT a roozer"",""roozer"",""NOT a roozer""]","[""stims/veh_c2_bas3.jpg"",""stims/veg_c1_sup6.jpg"",""stims/ani_c3_sup4.jpg"",""stims/veh_c2_sub4.jpg"",""stims/ani_c3_sub5.jpg"",""stims/veh_c2_sup6.jpg"",""stims/ani_c3_sup5.jpg"",""stims/veg_c1_bas4.jpg"",""stims/veg_c1_sup3.jpg"",""stims/veg_c1_sup4.jpg"",""stims/ani_c3_sup3.jpg"",""stims/ani_c3_sup6.jpg"",""stims/veg_c1_bas3.jpg"",""stims/ani_c3_bas3.jpg"",""stims/veg_c1_sup5.jpg"",""stims/veh_c2_sup4.jpg"",""stims/veh_c2_sup3.jpg"",""stims/veh_c2_sup5.jpg"",""stims/veg_c1_sub5.jpg"",""stims/veh_c2_bas4.jpg"",""stims/veg_c1_sub4.jpg"",""stims/ani_c3_bas4.jpg"",""stims/veh_c2_sub5.jpg"",""stims/ani_c3_sub4.jpg""]","broad","vegetables","broad","NOT a roozer","stims/veg_c1_sup3.jpg","roozer","1","","","","","","","",""
"html-button-response-catact","8","35609","0.0-8.0","TsuWwJvCatActhNhqdYMKsE","p111231","","","","","","","","","","","","","","","","","","[""stims/veg_c1_sub1.jpg"",""stims/veg_c1_sup1.jpg"",""stims/veg_c1_sup2.jpg""]","roozer","[""stims/veh_c2_sub4.jpg"",""stims/veh_c2_bas3.jpg"",""stims/ani_c3_bas3.jpg"",""stims/veh_c2_sup3.jpg"",""stims/veg_c1_sup3.jpg"",""stims/veg_c1_bas3.jpg"",""stims/ani_c3_sub4.jpg"",""stims/veg_c1_sub4.jpg"",""stims/ani_c3_sup3.jpg""]","[""NOT a roozer"",""NOT a roozer"",""NOT a roozer"",""NOT a roozer"",""roozer"",""roozer"",""NOT a roozer"",""roozer"",""NOT a roozer""]","[""stims/veh_c2_bas3.jpg"",""stims/veg_c1_sup6.jpg"",""stims/ani_c3_sup4.jpg"",""stims/veh_c2_sub4.jpg"",""stims/ani_c3_sub5.jpg"",""stims/veh_c2_sup6.jpg"",""stims/ani_c3_sup5.jpg"",""stims/veg_c1_bas4.jpg"",""stims/veg_c1_sup3.jpg"",""stims/veg_c1_sup4.jpg"",""stims/ani_c3_sup3.jpg"",""stims/ani_c3_sup6.jpg"",""stims/veg_c1_bas3.jpg"",""stims/ani_c3_bas3.jpg"",""stims/veg_c1_sup5.jpg"",""stims/veh_c2_sup4.jpg"",""stims/veh_c2_sup3.jpg"",""stims/veh_c2_sup5.jpg"",""stims/veg_c1_sub5.jpg"",""stims/veh_c2_bas4.jpg"",""stims/veg_c1_sub4.jpg"",""stims/ani_c3_bas4.jpg"",""stims/veh_c2_sub5.jpg"",""stims/ani_c3_sub4.jpg""]","broad","vegetables","broad","NOT a roozer","stims/veg_c1_sup3.jpg","roozer","","[""stims/veg_c1_sub4.jpg"",""stims/veg_c1_sub5.jpg"",""stims/veg_c1_bas3.jpg"",""stims/veg_c1_bas4.jpg"",""stims/veg_c1_sup3.jpg"",""stims/veg_c1_sup5.jpg"",""stims/veg_c1_sup6.jpg"",""stims/veg_c1_sup4.jpg""]","[""20"",""18"",""12"",""7"",""8"",""14"",""1"",""9""]","[1178.7999999523163,1670,2073,2580.399999976158,3040.2999999523163,5812.699999928474,6458.699999928474,7224]","[""select"",""select"",""select"",""select"",""select"",""select"",""select"",""select""]","[""stims/veg_c1_sub4.jpg"",""stims/veg_c1_sub5.jpg"",""stims/veg_c1_bas3.jpg"",""stims/veg_c1_bas4.jpg"",""stims/veg_c1_sup3.jpg"",""stims/veg_c1_sup5.jpg"",""stims/veg_c1_sup6.jpg"",""stims/veg_c1_sup4.jpg""]","8635","",""
"survey-html-form","9","39777","0.0-9.0","TsuWwJvCatActhNhqdYMKsE","p111231","","","","","","","","","","","","","","","4158.699999928474","","{""word_meaning"":""vegetable""}","[""stims/veg_c1_sub1.jpg"",""stims/veg_c1_sup1.jpg"",""stims/veg_c1_sup2.jpg""]","roozer","[""stims/veh_c2_sub4.jpg"",""stims/veh_c2_bas3.jpg"",""stims/ani_c3_bas3.jpg"",""stims/veh_c2_sup3.jpg"",""stims/veg_c1_sup3.jpg"",""stims/veg_c1_bas3.jpg"",""stims/ani_c3_sub4.jpg"",""stims/veg_c1_sub4.jpg"",""stims/ani_c3_sup3.jpg""]","[""NOT a roozer"",""NOT a roozer"",""NOT a roozer"",""NOT a roozer"",""roozer"",""roozer"",""NOT a roozer"",""roozer"",""NOT a roozer""]","[""stims/veh_c2_bas3.jpg"",""stims/veg_c1_sup6.jpg"",""stims/ani_c3_sup4.jpg"",""stims/veh_c2_sub4.jpg"",""stims/ani_c3_sub5.jpg"",""stims/veh_c2_sup6.jpg"",""stims/ani_c3_sup5.jpg"",""stims/veg_c1_bas4.jpg"",""stims/veg_c1_sup3.jpg"",""stims/veg_c1_sup4.jpg"",""stims/ani_c3_sup3.jpg"",""stims/ani_c3_sup6.jpg"",""stims/veg_c1_bas3.jpg"",""stims/ani_c3_bas3.jpg"",""stims/veg_c1_sup5.jpg"",""stims/veh_c2_sup4.jpg"",""stims/veh_c2_sup3.jpg"",""stims/veh_c2_sup5.jpg"",""stims/veg_c1_sub5.jpg"",""stims/veh_c2_bas4.jpg"",""stims/veg_c1_sub4.jpg"",""stims/ani_c3_bas4.jpg"",""stims/veh_c2_sub5.jpg"",""stims/ani_c3_sub4.jpg""]","broad","vegetables","broad","NOT a roozer","","","","","","","","","","",""
"html-button-response","10","40511","0.0-10.0","TsuWwJvCatActhNhqdYMKsE","p111231","","","","","","","","","","","","","","","731.8999999761581","<div id=""container""><p><b><font size=""4.5"">Great job!</font></b></p><p><i><font size=""4.5"">Click Next to learn another word.</font></i></p> </div>","0","","","","","","","","","","","","","","","","","","","",""
"html-button-response","11","42341","0.0-11.0","TsuWwJvCatActhNhqdYMKsE","p111231","","","","","","","","","","","","","","","1827.5","<div id=""container""><p><b><font size=""4.5"">Your job is to figure out which objects are sibus and which are not.</font></b><style=""text-align:center;"" /p><p><b><font size=""4.5"">This is a sibu.</font></b><style=""text-align:center;"" /p><div class=""row""><div class=""column""><figure style=""opacity:0""><img src=""stims/ani_c3_sub1.jpg"" style=""width:70%""><figcaption style=""font-size:24px"">sibu</figcaption></figure></div><div class=""column""><figure><img src=""stims/ani_c3_sub1.jpg"" style=""width:50%""><figcaption style=""font-size:24px"">sibu</figcaption></figure></div><div class=""column""><figure style=""opacity:0""><img src=""stims/ani_c3_sub1.jpg"" style=""width:70%""><figcaption style=""font-size:24px"">sibu</figcaption></figure></div></div><p><b><font size=""4.5"">On the next page, we will check your memory of this new word. Make sure you look at the example and the new word carefully.</font></b><style=""text-align:center;"" /p><p><i>Click Next when you are ready to continue.</font></i><style=""text-align:center;"" /p></div>","0","[""stims/ani_c3_sub1.jpg"",""stims/ani_c3_sub2.jpg"",""stims/ani_c3_sub3.jpg""]","sibu","[""stims/veh_c2_sub4.jpg"",""stims/veg_c1_sup3.jpg"",""stims/ani_c3_sup3.jpg"",""stims/ani_c3_bas3.jpg"",""stims/veg_c1_bas3.jpg"",""stims/veh_c2_bas3.jpg"",""stims/veg_c1_sub4.jpg"",""stims/veh_c2_sup3.jpg"",""stims/ani_c3_sub4.jpg""]","[""NOT a sibu"",""NOT a sibu"",""NOT a sibu"",""sibu"",""NOT a sibu"",""NOT a sibu"",""NOT a sibu"",""NOT a sibu"",""sibu""]","[""stims/ani_c3_sup3.jpg"",""stims/veh_c2_bas4.jpg"",""stims/ani_c3_sup4.jpg"",""stims/veg_c1_sup3.jpg"",""stims/veg_c1_sub5.jpg"",""stims/ani_c3_bas3.jpg"",""stims/veh_c2_sub4.jpg"",""stims/veh_c2_sup3.jpg"",""stims/ani_c3_sub5.jpg"",""stims/veg_c1_bas4.jpg"",""stims/veh_c2_sub5.jpg"",""stims/veg_c1_sup5.jpg"",""stims/veh_c2_sup5.jpg"",""stims/ani_c3_bas4.jpg"",""stims/ani_c3_sup5.jpg"",""stims/veh_c2_sup6.jpg"",""stims/veg_c1_sup6.jpg"",""stims/ani_c3_sup6.jpg"",""stims/veg_c1_sub4.jpg"",""stims/veg_c1_bas3.jpg"",""stims/veg_c1_sup4.jpg"",""stims/ani_c3_sub4.jpg"",""stims/veh_c2_sup4.jpg"",""stims/veh_c2_bas3.jpg""]","intermediate","animals","narrow","NOT a sibu","","","","","","","","","","",""
"survey-html-form","12","45107","0.0-12.0","TsuWwJvCatActhNhqdYMKsE","p111231","","","","","","","","","","","","","","","2761.600000023842","","{""name_check"":""sibu""}","[""stims/ani_c3_sub1.jpg"",""stims/ani_c3_sub2.jpg"",""stims/ani_c3_sub3.jpg""]","sibu","[""stims/veh_c2_sub4.jpg"",""stims/veg_c1_sup3.jpg"",""stims/ani_c3_sup3.jpg"",""stims/ani_c3_bas3.jpg"",""stims/veg_c1_bas3.jpg"",""stims/veh_c2_bas3.jpg"",""stims/veg_c1_sub4.jpg"",""stims/veh_c2_sup3.jpg"",""stims/ani_c3_sub4.jpg""]","[""NOT a sibu"",""NOT a sibu"",""NOT a sibu"",""sibu"",""NOT a sibu"",""NOT a sibu"",""NOT a sibu"",""NOT a sibu"",""sibu""]","[""stims/ani_c3_sup3.jpg"",""stims/veh_c2_bas4.jpg"",""stims/ani_c3_sup4.jpg"",""stims/veg_c1_sup3.jpg"",""stims/veg_c1_sub5.jpg"",""stims/ani_c3_bas3.jpg"",""stims/veh_c2_sub4.jpg"",""stims/veh_c2_sup3.jpg"",""stims/ani_c3_sub5.jpg"",""stims/veg_c1_bas4.jpg"",""stims/veh_c2_sub5.jpg"",""stims/veg_c1_sup5.jpg"",""stims/veh_c2_sup5.jpg"",""stims/ani_c3_bas4.jpg"",""stims/ani_c3_sup5.jpg"",""stims/veh_c2_sup6.jpg"",""stims/veg_c1_sup6.jpg"",""stims/ani_c3_sup6.jpg"",""stims/veg_c1_sub4.jpg"",""stims/veg_c1_bas3.jpg"",""stims/veg_c1_sup4.jpg"",""stims/ani_c3_sub4.jpg"",""stims/veh_c2_sup4.jpg"",""stims/veh_c2_bas3.jpg""]","intermediate","animals","narrow","NOT a sibu","","","","","","","","","","",""
"html-button-response-cols","13","47960","0.0-13.0","TsuWwJvCatActhNhqdYMKsE","p111231","","","","","","","","","","","","","","","2849.100000023842","<div id=""container""><p><b><font size=""4.5"">Your job is to figure out which objects are sibus and which are not.</font></b><style=""text-align:center;"" /p><p><b><font size=""4.5"">This is a sibu.</font></b><style=""text-align:center;"" /p><div class=""row""><div class=""column""><figure style=""opacity:0""><img src=""stims/ani_c3_sub1.jpg"" style=""width:70%""><figcaption style=""font-size:24px"">sibu</figcaption></figure></div><div class=""column""><figure><img src=""stims/ani_c3_sub1.jpg"" style=""width:50%""><figcaption style=""font-size:24px"">sibu</figcaption></figure></div><div class=""column""><figure style=""opacity:0""><img src=""stims/ani_c3_sub1.jpg"" style=""width:70%""><figcaption style=""font-size:24px"">sibu</figcaption></figure></div></div><p><b><font size=""4.5"">Which of these nine objects would you like to learn the name of? You can only make one choice, so choose carefully!</font></b></p><p><i><font size=""4.5"">Click on the object that you would like to know the name of.</font></i><style=""text-align:center;"" /p>","3","[""stims/ani_c3_sub1.jpg"",""stims/ani_c3_sub2.jpg"",""stims/ani_c3_sub3.jpg""]","sibu","[""stims/veh_c2_sub4.jpg"",""stims/veg_c1_sup3.jpg"",""stims/ani_c3_sup3.jpg"",""stims/ani_c3_bas3.jpg"",""stims/veg_c1_bas3.jpg"",""stims/veh_c2_bas3.jpg"",""stims/veg_c1_sub4.jpg"",""stims/veh_c2_sup3.jpg"",""stims/ani_c3_sub4.jpg""]","[""NOT a sibu"",""NOT a sibu"",""NOT a sibu"",""sibu"",""NOT a sibu"",""NOT a sibu"",""NOT a sibu"",""NOT a sibu"",""sibu""]","[""stims/ani_c3_sup3.jpg"",""stims/veh_c2_bas4.jpg"",""stims/ani_c3_sup4.jpg"",""stims/veg_c1_sup3.jpg"",""stims/veg_c1_sub5.jpg"",""stims/ani_c3_bas3.jpg"",""stims/veh_c2_sub4.jpg"",""stims/veh_c2_sup3.jpg"",""stims/ani_c3_sub5.jpg"",""stims/veg_c1_bas4.jpg"",""stims/veh_c2_sub5.jpg"",""stims/veg_c1_sup5.jpg"",""stims/veh_c2_sup5.jpg"",""stims/ani_c3_bas4.jpg"",""stims/ani_c3_sup5.jpg"",""stims/veh_c2_sup6.jpg"",""stims/veg_c1_sup6.jpg"",""stims/ani_c3_sup6.jpg"",""stims/veg_c1_sub4.jpg"",""stims/veg_c1_bas3.jpg"",""stims/veg_c1_sup4.jpg"",""stims/ani_c3_sub4.jpg"",""stims/veh_c2_sup4.jpg"",""stims/veh_c2_bas3.jpg""]","intermediate","animals","narrow","NOT a sibu","","","","","","","","","","",""
"html-button-response","14","49604","0.0-14.0","TsuWwJvCatActhNhqdYMKsE","p111231","","","","","","","","","","","","","","","1640.5","<div id=""container""><p><b><font size=""4.5"">The image you selected is a <span style=""color:#ff0000""><u>sibu</u></span>.</font></b><style=""text-align:center;"" /p><div class=""row""><div class=""column""><figure style=""opacity:0""><img src=""stims/ani_c3_sub1.jpg"" style=""width:70%""><figcaption style=""font-size:24px"">sibu</figcaption></figure></div><div class=""column""><figure><img src=""stims/ani_c3_sub1.jpg"" style=""width:70%""><figcaption style=""font-size:24px"">sibu</figcaption></figure></div><div class=""column""><figure><img src=""stims/ani_c3_bas3.jpg"" style=""width:57%; border: 5px solid #ff0000; padding: 6px""><figcaption style=""font-size:24px;color:#ff0000"">sibu</figcaption></figure></div><div class=""column""><figure style=""opacity:0""><img src=""stims/ani_c3_sub1.jpg"" style=""width:70%""><figcaption style=""font-size:24px"">sibu</figcaption></figure></div></div class=""column""></div class=""column""></div class=""column""></div class=""column""><div id=""container""><p><b><font size=""4.5"">Next, you will see a set of 24 new objects and decide which of them are sibus.</font></b><div id=""container""><p><b><font size=""4.5"">Your goal is to select <u>all</u> of the sibus.</font></b><p><i><font size=""4.5"">Click Next to continue.</font></i><style=""text-align:center;"" /p><style=""text-align:center;"" /p></div>","0","[""stims/ani_c3_sub1.jpg"",""stims/ani_c3_sub2.jpg"",""stims/ani_c3_sub3.jpg""]","sibu","[""stims/veh_c2_sub4.jpg"",""stims/veg_c1_sup3.jpg"",""stims/ani_c3_sup3.jpg"",""stims/ani_c3_bas3.jpg"",""stims/veg_c1_bas3.jpg"",""stims/veh_c2_bas3.jpg"",""stims/veg_c1_sub4.jpg"",""stims/veh_c2_sup3.jpg"",""stims/ani_c3_sub4.jpg""]","[""NOT a sibu"",""NOT a sibu"",""NOT a sibu"",""sibu"",""NOT a sibu"",""NOT a sibu"",""NOT a sibu"",""NOT a sibu"",""sibu""]","[""stims/ani_c3_sup3.jpg"",""stims/veh_c2_bas4.jpg"",""stims/ani_c3_sup4.jpg"",""stims/veg_c1_sup3.jpg"",""stims/veg_c1_sub5.jpg"",""stims/ani_c3_bas3.jpg"",""stims/veh_c2_sub4.jpg"",""stims/veh_c2_sup3.jpg"",""stims/ani_c3_sub5.jpg"",""stims/veg_c1_bas4.jpg"",""stims/veh_c2_sub5.jpg"",""stims/veg_c1_sup5.jpg"",""stims/veh_c2_sup5.jpg"",""stims/ani_c3_bas4.jpg"",""stims/ani_c3_sup5.jpg"",""stims/veh_c2_sup6.jpg"",""stims/veg_c1_sup6.jpg"",""stims/ani_c3_sup6.jpg"",""stims/veg_c1_sub4.jpg"",""stims/veg_c1_bas3.jpg"",""stims/veg_c1_sup4.jpg"",""stims/ani_c3_sub4.jpg"",""stims/veh_c2_sup4.jpg"",""stims/veh_c2_bas3.jpg""]","intermediate","animals","narrow","NOT a sibu","stims/ani_c3_bas3.jpg","sibu","1","","","","","","","",""
"html-button-response-catact","15","61285","0.0-15.0","TsuWwJvCatActhNhqdYMKsE","p111231","","","","","","","","","","","","","","","","","","[""stims/ani_c3_sub1.jpg"",""stims/ani_c3_sub2.jpg"",""stims/ani_c3_sub3.jpg""]","sibu","[""stims/veh_c2_sub4.jpg"",""stims/veg_c1_sup3.jpg"",""stims/ani_c3_sup3.jpg"",""stims/ani_c3_bas3.jpg"",""stims/veg_c1_bas3.jpg"",""stims/veh_c2_bas3.jpg"",""stims/veg_c1_sub4.jpg"",""stims/veh_c2_sup3.jpg"",""stims/ani_c3_sub4.jpg""]","[""NOT a sibu"",""NOT a sibu"",""NOT a sibu"",""sibu"",""NOT a sibu"",""NOT a sibu"",""NOT a sibu"",""NOT a sibu"",""sibu""]","[""stims/ani_c3_sup3.jpg"",""stims/veh_c2_bas4.jpg"",""stims/ani_c3_sup4.jpg"",""stims/veg_c1_sup3.jpg"",""stims/veg_c1_sub5.jpg"",""stims/ani_c3_bas3.jpg"",""stims/veh_c2_sub4.jpg"",""stims/veh_c2_sup3.jpg"",""stims/ani_c3_sub5.jpg"",""stims/veg_c1_bas4.jpg"",""stims/veh_c2_sub5.jpg"",""stims/veg_c1_sup5.jpg"",""stims/veh_c2_sup5.jpg"",""stims/ani_c3_bas4.jpg"",""stims/ani_c3_sup5.jpg"",""stims/veh_c2_sup6.jpg"",""stims/veg_c1_sup6.jpg"",""stims/ani_c3_sup6.jpg"",""stims/veg_c1_sub4.jpg"",""stims/veg_c1_bas3.jpg"",""stims/veg_c1_sup4.jpg"",""stims/ani_c3_sub4.jpg"",""stims/veh_c2_sup4.jpg"",""stims/veh_c2_bas3.jpg""]","intermediate","animals","narrow","NOT a sibu","stims/ani_c3_bas3.jpg","sibu","","[""stims/ani_c3_sub5.jpg"",""stims/ani_c3_bas4.jpg"",""stims/ani_c3_bas3.jpg"",""stims/ani_c3_sub4.jpg""]","[""8"",""13"",""5"",""21""]","[953.7000000476837,1566.1000000238419,3097.8000000715256,4580.600000023842]","[""select"",""select"",""select"",""select""]","[""stims/ani_c3_sub5.jpg"",""stims/ani_c3_bas4.jpg"",""stims/ani_c3_bas3.jpg"",""stims/ani_c3_sub4.jpg""]","11675.800000071526","",""
"survey-html-form","16","64380","0.0-16.0","TsuWwJvCatActhNhqdYMKsE","p111231","","","","","","","","","","","","","","","3091.600000023842","","{""word_meaning"":""dog""}","[""stims/ani_c3_sub1.jpg"",""stims/ani_c3_sub2.jpg"",""stims/ani_c3_sub3.jpg""]","sibu","[""stims/veh_c2_sub4.jpg"",""stims/veg_c1_sup3.jpg"",""stims/ani_c3_sup3.jpg"",""stims/ani_c3_bas3.jpg"",""stims/veg_c1_bas3.jpg"",""stims/veh_c2_bas3.jpg"",""stims/veg_c1_sub4.jpg"",""stims/veh_c2_sup3.jpg"",""stims/ani_c3_sub4.jpg""]","[""NOT a sibu"",""NOT a sibu"",""NOT a sibu"",""sibu"",""NOT a sibu"",""NOT a sibu"",""NOT a sibu"",""NOT a sibu"",""sibu""]","[""stims/ani_c3_sup3.jpg"",""stims/veh_c2_bas4.jpg"",""stims/ani_c3_sup4.jpg"",""stims/veg_c1_sup3.jpg"",""stims/veg_c1_sub5.jpg"",""stims/ani_c3_bas3.jpg"",""stims/veh_c2_sub4.jpg"",""stims/veh_c2_sup3.jpg"",""stims/ani_c3_sub5.jpg"",""stims/veg_c1_bas4.jpg"",""stims/veh_c2_sub5.jpg"",""stims/veg_c1_sup5.jpg"",""stims/veh_c2_sup5.jpg"",""stims/ani_c3_bas4.jpg"",""stims/ani_c3_sup5.jpg"",""stims/veh_c2_sup6.jpg"",""stims/veg_c1_sup6.jpg"",""stims/ani_c3_sup6.jpg"",""stims/veg_c1_sub4.jpg"",""stims/veg_c1_bas3.jpg"",""stims/veg_c1_sup4.jpg"",""stims/ani_c3_sub4.jpg"",""stims/veh_c2_sup4.jpg"",""stims/veh_c2_bas3.jpg""]","intermediate","animals","narrow","NOT a sibu","","","","","","","","","","",""
"html-button-response","17","65113","0.0-17.0","TsuWwJvCatActhNhqdYMKsE","p111231","","","","","","","","","","","","","","","731.6999999284744","<div id=""container""><p><b><font size=""4.5"">Great job!</font></b></p><p><i><font size=""4.5"">Click Next to learn another word.</font></i></p> </div>","0","","","","","","","","","","","","","","","","","","","",""
"html-button-response","18","66678","0.0-18.0","TsuWwJvCatActhNhqdYMKsE","p111231","","","","","","","","","","","","","","","1562","<div id=""container""><p><b><font size=""4.5"">Your job is to figure out which objects are beppos and which are not.</font></b><style=""text-align:center;"" /p><p><b><font size=""4.5"">This is a beppo.</font></b><style=""text-align:center;"" /p><div class=""row""><div class=""column""><figure style=""opacity:0""><img src=""stims/veh_c2_sub1.jpg"" style=""width:70%""><figcaption style=""font-size:24px"">beppo</figcaption></figure></div><div class=""column""><figure><img src=""stims/veh_c2_sub1.jpg"" style=""width:50%""><figcaption style=""font-size:24px"">beppo</figcaption></figure></div><div class=""column""><figure style=""opacity:0""><img src=""stims/veh_c2_sub1.jpg"" style=""width:70%""><figcaption style=""font-size:24px"">beppo</figcaption></figure></div></div><p><b><font size=""4.5"">On the next page, we will check your memory of this new word. Make sure you look at the example and the new word carefully.</font></b><style=""text-align:center;"" /p><p><i>Click Next when you are ready to continue.</font></i><style=""text-align:center;"" /p></div>","0","[""stims/veh_c2_sub1.jpg"",""stims/veh_c2_bas1.jpg"",""stims/veh_c2_bas2.jpg""]","beppo","[""stims/ani_c3_bas3.jpg"",""stims/veh_c2_sub4.jpg"",""stims/veg_c1_sub4.jpg"",""stims/veg_c1_sup3.jpg"",""stims/veg_c1_bas3.jpg"",""stims/ani_c3_sub4.jpg"",""stims/veh_c2_bas3.jpg"",""stims/ani_c3_sup3.jpg"",""stims/veh_c2_sup3.jpg""]","[""NOT a beppo"",""beppo"",""beppo"",""beppo"",""beppo"",""NOT a beppo"",""beppo"",""NOT a beppo"",""beppo""]","[""stims/veh_c2_sub4.jpg"",""stims/veg_c1_sub5.jpg"",""stims/veh_c2_sup6.jpg"",""stims/veh_c2_sup4.jpg"",""stims/veh_c2_sup3.jpg"",""stims/veh_c2_bas3.jpg"",""stims/veg_c1_bas4.jpg"",""stims/veg_c1_sup4.jpg"",""stims/veg_c1_sup6.jpg"",""stims/veg_c1_sup3.jpg"",""stims/ani_c3_sup3.jpg"",""stims/ani_c3_sup5.jpg"",""stims/veh_c2_sub5.jpg"",""stims/veh_c2_bas4.jpg"",""stims/veg_c1_bas3.jpg"",""stims/ani_c3_bas3.jpg"",""stims/ani_c3_sub5.jpg"",""stims/ani_c3_bas4.jpg"",""stims/ani_c3_sub4.jpg"",""stims/veg_c1_sub4.jpg"",""stims/ani_c3_sup4.jpg"",""stims/veh_c2_sup5.jpg"",""stims/ani_c3_sup6.jpg"",""stims/veg_c1_sup5.jpg""]","hypernym","vehicles","intermediate","NOT a beppo","","","","","","","","","","",""
"survey-html-form","19","69023","0.0-19.0","TsuWwJvCatActhNhqdYMKsE","p111231","","","","","","","","","","","","","","","2341.399999976158","","{""name_check"":""beppo""}","[""stims/veh_c2_sub1.jpg"",""stims/veh_c2_bas1.jpg"",""stims/veh_c2_bas2.jpg""]","beppo","[""stims/ani_c3_bas3.jpg"",""stims/veh_c2_sub4.jpg"",""stims/veg_c1_sub4.jpg"",""stims/veg_c1_sup3.jpg"",""stims/veg_c1_bas3.jpg"",""stims/ani_c3_sub4.jpg"",""stims/veh_c2_bas3.jpg"",""stims/ani_c3_sup3.jpg"",""stims/veh_c2_sup3.jpg""]","[""NOT a beppo"",""beppo"",""beppo"",""beppo"",""beppo"",""NOT a beppo"",""beppo"",""NOT a beppo"",""beppo""]","[""stims/veh_c2_sub4.jpg"",""stims/veg_c1_sub5.jpg"",""stims/veh_c2_sup6.jpg"",""stims/veh_c2_sup4.jpg"",""stims/veh_c2_sup3.jpg"",""stims/veh_c2_bas3.jpg"",""stims/veg_c1_bas4.jpg"",""stims/veg_c1_sup4.jpg"",""stims/veg_c1_sup6.jpg"",""stims/veg_c1_sup3.jpg"",""stims/ani_c3_sup3.jpg"",""stims/ani_c3_sup5.jpg"",""stims/veh_c2_sub5.jpg"",""stims/veh_c2_bas4.jpg"",""stims/veg_c1_bas3.jpg"",""stims/ani_c3_bas3.jpg"",""stims/ani_c3_sub5.jpg"",""stims/ani_c3_bas4.jpg"",""stims/ani_c3_sub4.jpg"",""stims/veg_c1_sub4.jpg"",""stims/ani_c3_sup4.jpg"",""stims/veh_c2_sup5.jpg"",""stims/ani_c3_sup6.jpg"",""stims/veg_c1_sup5.jpg""]","hypernym","vehicles","intermediate","NOT a beppo","","","","","","","","","","",""
"html-button-response-cols","20","73715","0.0-20.0","TsuWwJvCatActhNhqdYMKsE","p111231","","","","","","","","","","","","","","","4688","<div id=""container""><p><b><font size=""4.5"">Your job is to figure out which objects are beppos and which are not.</font></b><style=""text-align:center;"" /p><p><b><font size=""4.5"">This is a beppo.</font></b><style=""text-align:center;"" /p><div class=""row""><div class=""column""><figure style=""opacity:0""><img src=""stims/veh_c2_sub1.jpg"" style=""width:70%""><figcaption style=""font-size:24px"">beppo</figcaption></figure></div><div class=""column""><figure><img src=""stims/veh_c2_sub1.jpg"" style=""width:50%""><figcaption style=""font-size:24px"">beppo</figcaption></figure></div><div class=""column""><figure style=""opacity:0""><img src=""stims/veh_c2_sub1.jpg"" style=""width:70%""><figcaption style=""font-size:24px"">beppo</figcaption></figure></div></div><p><b><font size=""4.5"">Which of these nine objects would you like to learn the name of? You can only make one choice, so choose carefully!</font></b></p><p><i><font size=""4.5"">Click on the object that you would like to know the name of.</font></i><style=""text-align:center;"" /p>","8","[""stims/veh_c2_sub1.jpg"",""stims/veh_c2_bas1.jpg"",""stims/veh_c2_bas2.jpg""]","beppo","[""stims/ani_c3_bas3.jpg"",""stims/veh_c2_sub4.jpg"",""stims/veg_c1_sub4.jpg"",""stims/veg_c1_sup3.jpg"",""stims/veg_c1_bas3.jpg"",""stims/ani_c3_sub4.jpg"",""stims/veh_c2_bas3.jpg"",""stims/ani_c3_sup3.jpg"",""stims/veh_c2_sup3.jpg""]","[""NOT a beppo"",""beppo"",""beppo"",""beppo"",""beppo"",""NOT a beppo"",""beppo"",""NOT a beppo"",""beppo""]","[""stims/veh_c2_sub4.jpg"",""stims/veg_c1_sub5.jpg"",""stims/veh_c2_sup6.jpg"",""stims/veh_c2_sup4.jpg"",""stims/veh_c2_sup3.jpg"",""stims/veh_c2_bas3.jpg"",""stims/veg_c1_bas4.jpg"",""stims/veg_c1_sup4.jpg"",""stims/veg_c1_sup6.jpg"",""stims/veg_c1_sup3.jpg"",""stims/ani_c3_sup3.jpg"",""stims/ani_c3_sup5.jpg"",""stims/veh_c2_sub5.jpg"",""stims/veh_c2_bas4.jpg"",""stims/veg_c1_bas3.jpg"",""stims/ani_c3_bas3.jpg"",""stims/ani_c3_sub5.jpg"",""stims/ani_c3_bas4.jpg"",""stims/ani_c3_sub4.jpg"",""stims/veg_c1_sub4.jpg"",""stims/ani_c3_sup4.jpg"",""stims/veh_c2_sup5.jpg"",""stims/ani_c3_sup6.jpg"",""stims/veg_c1_sup5.jpg""]","hypernym","vehicles","intermediate","NOT a beppo","","","","","","","","","","",""
"html-button-response","21","74916","0.0-21.0","TsuWwJvCatActhNhqdYMKsE","p111231","","","","","","","","","","","","","","","1197.5999999046326","<div id=""container""><p><b><font size=""4.5"">The image you selected is a <span style=""color:#ff0000""><u>beppo</u></span>.</font></b><style=""text-align:center;"" /p><div class=""row""><div class=""column""><figure style=""opacity:0""><img src=""stims/veh_c2_sub1.jpg"" style=""width:70%""><figcaption style=""font-size:24px"">beppo</figcaption></figure></div><div class=""column""><figure><img src=""stims/veh_c2_sub1.jpg"" style=""width:70%""><figcaption style=""font-size:24px"">beppo</figcaption></figure></div><div class=""column""><figure><img src=""stims/veh_c2_sup3.jpg"" style=""width:57%; border: 5px solid #ff0000; padding: 6px""><figcaption style=""font-size:24px;color:#ff0000"">beppo</figcaption></figure></div><div class=""column""><figure style=""opacity:0""><img src=""stims/veh_c2_sub1.jpg"" style=""width:70%""><figcaption style=""font-size:24px"">beppo</figcaption></figure></div></div class=""column""></div class=""column""></div class=""column""></div class=""column""><div id=""container""><p><b><font size=""4.5"">Next, you will see a set of 24 new objects and decide which of them are beppos.</font></b><div id=""container""><p><b><font size=""4.5"">Your goal is to select <u>all</u> of the beppos.</font></b><p><i><font size=""4.5"">Click Next to continue.</font></i><style=""text-align:center;"" /p><style=""text-align:center;"" /p></div>","0","[""stims/veh_c2_sub1.jpg"",""stims/veh_c2_bas1.jpg"",""stims/veh_c2_bas2.jpg""]","beppo","[""stims/ani_c3_bas3.jpg"",""stims/veh_c2_sub4.jpg"",""stims/veg_c1_sub4.jpg"",""stims/veg_c1_sup3.jpg"",""stims/veg_c1_bas3.jpg"",""stims/ani_c3_sub4.jpg"",""stims/veh_c2_bas3.jpg"",""stims/ani_c3_sup3.jpg"",""stims/veh_c2_sup3.jpg""]","[""NOT a beppo"",""beppo"",""beppo"",""beppo"",""beppo"",""NOT a beppo"",""beppo"",""NOT a beppo"",""beppo""]","[""stims/veh_c2_sub4.jpg"",""stims/veg_c1_sub5.jpg"",""stims/veh_c2_sup6.jpg"",""stims/veh_c2_sup4.jpg"",""stims/veh_c2_sup3.jpg"",""stims/veh_c2_bas3.jpg"",""stims/veg_c1_bas4.jpg"",""stims/veg_c1_sup4.jpg"",""stims/veg_c1_sup6.jpg"",""stims/veg_c1_sup3.jpg"",""stims/ani_c3_sup3.jpg"",""stims/ani_c3_sup5.jpg"",""stims/veh_c2_sub5.jpg"",""stims/veh_c2_bas4.jpg"",""stims/veg_c1_bas3.jpg"",""stims/ani_c3_bas3.jpg"",""stims/ani_c3_sub5.jpg"",""stims/ani_c3_bas4.jpg"",""stims/ani_c3_sub4.jpg"",""stims/veg_c1_sub4.jpg"",""stims/ani_c3_sup4.jpg"",""stims/veh_c2_sup5.jpg"",""stims/ani_c3_sup6.jpg"",""stims/veg_c1_sup5.jpg""]","hypernym","vehicles","intermediate","NOT a beppo","stims/veh_c2_sup3.jpg","beppo","1","","","","","","","",""
"html-button-response-catact","22","84146","0.0-22.0","TsuWwJvCatActhNhqdYMKsE","p111231","","","","","","","","","","","","","","","","","","[""stims/veh_c2_sub1.jpg"",""stims/veh_c2_bas1.jpg"",""stims/veh_c2_bas2.jpg""]","beppo","[""stims/ani_c3_bas3.jpg"",""stims/veh_c2_sub4.jpg"",""stims/veg_c1_sub4.jpg"",""stims/veg_c1_sup3.jpg"",""stims/veg_c1_bas3.jpg"",""stims/ani_c3_sub4.jpg"",""stims/veh_c2_bas3.jpg"",""stims/ani_c3_sup3.jpg"",""stims/veh_c2_sup3.jpg""]","[""NOT a beppo"",""beppo"",""beppo"",""beppo"",""beppo"",""NOT a beppo"",""beppo"",""NOT a beppo"",""beppo""]","[""stims/veh_c2_sub4.jpg"",""stims/veg_c1_sub5.jpg"",""stims/veh_c2_sup6.jpg"",""stims/veh_c2_sup4.jpg"",""stims/veh_c2_sup3.jpg"",""stims/veh_c2_bas3.jpg"",""stims/veg_c1_bas4.jpg"",""stims/veg_c1_sup4.jpg"",""stims/veg_c1_sup6.jpg"",""stims/veg_c1_sup3.jpg"",""stims/ani_c3_sup3.jpg"",""stims/ani_c3_sup5.jpg"",""stims/veh_c2_sub5.jpg"",""stims/veh_c2_bas4.jpg"",""stims/veg_c1_bas3.jpg"",""stims/ani_c3_bas3.jpg"",""stims/ani_c3_sub5.jpg"",""stims/ani_c3_bas4.jpg"",""stims/ani_c3_sub4.jpg"",""stims/veg_c1_sub4.jpg"",""stims/ani_c3_sup4.jpg"",""stims/veh_c2_sup5.jpg"",""stims/ani_c3_sup6.jpg"",""stims/veg_c1_sup5.jpg""]","hypernym","vehicles","intermediate","NOT a beppo","stims/veh_c2_sup3.jpg","beppo","","[""stims/veh_c2_sup6.jpg"",""stims/veh_c2_sub4.jpg"",""stims/veh_c2_sup4.jpg"",""stims/veh_c2_sup3.jpg"",""stims/veh_c2_bas3.jpg"",""stims/veh_c2_sub5.jpg"",""stims/veh_c2_bas4.jpg""]","[""2"",""0"",""3"",""4"",""5"",""12"",""13""]","[1357.5,1866.7000000476837,3058.2000000476837,3476.9000000953674,3937.100000023842,6411.200000047684,6782.5]","[""select"",""select"",""select"",""select"",""select"",""select"",""select""]","[""stims/veh_c2_sup6.jpg"",""stims/veh_c2_sub4.jpg"",""stims/veh_c2_sup4.jpg"",""stims/veh_c2_sup3.jpg"",""stims/veh_c2_bas3.jpg"",""stims/veh_c2_sub5.jpg"",""stims/veh_c2_bas4.jpg""]","9225","",""
"survey-html-form","23","94972","0.0-23.0","TsuWwJvCatActhNhqdYMKsE","p111231","","","","","","","","","","","","","","","10822.900000095367","","{""word_meaning"":""driving transportation""}","[""stims/veh_c2_sub1.jpg"",""stims/veh_c2_bas1.jpg"",""stims/veh_c2_bas2.jpg""]","beppo","[""stims/ani_c3_bas3.jpg"",""stims/veh_c2_sub4.jpg"",""stims/veg_c1_sub4.jpg"",""stims/veg_c1_sup3.jpg"",""stims/veg_c1_bas3.jpg"",""stims/ani_c3_sub4.jpg"",""stims/veh_c2_bas3.jpg"",""stims/ani_c3_sup3.jpg"",""stims/veh_c2_sup3.jpg""]","[""NOT a beppo"",""beppo"",""beppo"",""beppo"",""beppo"",""NOT a beppo"",""beppo"",""NOT a beppo"",""beppo""]","[""stims/veh_c2_sub4.jpg"",""stims/veg_c1_sub5.jpg"",""stims/veh_c2_sup6.jpg"",""stims/veh_c2_sup4.jpg"",""stims/veh_c2_sup3.jpg"",""stims/veh_c2_bas3.jpg"",""stims/veg_c1_bas4.jpg"",""stims/veg_c1_sup4.jpg"",""stims/veg_c1_sup6.jpg"",""stims/veg_c1_sup3.jpg"",""stims/ani_c3_sup3.jpg"",""stims/ani_c3_sup5.jpg"",""stims/veh_c2_sub5.jpg"",""stims/veh_c2_bas4.jpg"",""stims/veg_c1_bas3.jpg"",""stims/ani_c3_bas3.jpg"",""stims/ani_c3_sub5.jpg"",""stims/ani_c3_bas4.jpg"",""stims/ani_c3_sub4.jpg"",""stims/veg_c1_sub4.jpg"",""stims/ani_c3_sup4.jpg"",""stims/veh_c2_sup5.jpg"",""stims/ani_c3_sup6.jpg"",""stims/veg_c1_sup5.jpg""]","hypernym","vehicles","intermediate","NOT a beppo","","","","","","","","","","",""
"html-button-response","24","100189","0.0-24.0","TsuWwJvCatActhNhqdYMKsE","p111231","","","","","","","","","","","","","","","5214.5","<div id=""container""><p><b><font size=""4.5"">Your job is to figure out which objects are roozers and which are not.</font></b><style=""text-align:center;"" /p><p><b><font size=""4.5"">These are 3 roozers.</font></b><style=""text-align:center;"" /p><div class=""row""><div class=""column""><figure><img src=""stims/sea_c6_sub1.jpg"" style=""width:70%""><figcaption style=""font-size:24px"">roozer</figcaption></figure></div><div class=""column""><figure><img src=""stims/sea_c6_sup1.jpg"" style=""width:70%""><figcaption style=""font-size:24px"">roozer</figcaption></figure></div><div class=""column""><figure><img src=""stims/sea_c6_sup2.jpg"" style=""width:70%""><figcaption style=""font-size:24px"">roozer</figcaption></figure></div><div class=""column""><img src=""stims/sea_c6_sub1.jpg"" style=""width:70%;opacity:0""></div></div><p><b><font size=""4.5"">On the next page, we will check your memory of this new word. Make sure you look at the three examples and the new word carefully.</font></b><style=""text-align:center;"" /p><p><i>Click Next when you are ready to continue.</font></i><style=""text-align:center;"" /p></div>","0","[""stims/sea_c6_sub1.jpg"",""stims/sea_c6_sup1.jpg"",""stims/sea_c6_sup2.jpg""]","roozer","[""stims/fru_c4_sup3.jpg"",""stims/mus_c5_bas3.jpg"",""stims/fru_c4_sub4.jpg"",""stims/sea_c6_sub4.jpg"",""stims/mus_c5_sup3.jpg"",""stims/sea_c6_sup3.jpg"",""stims/mus_c5_sub4.jpg"",""stims/sea_c6_bas3.jpg"",""stims/fru_c4_bas3.jpg""]","[""NOT a roozer"",""NOT a roozer"",""NOT a roozer"",""roozer"",""NOT a roozer"",""roozer"",""NOT a roozer"",""roozer"",""NOT a roozer""]","[""stims/sea_c6_sub4.jpg"",""stims/sea_c6_sup6.jpg"",""stims/fru_c4_bas4.jpg"",""stims/mus_c5_sub4.jpg"",""stims/sea_c6_sup3.jpg"",""stims/fru_c4_sup4.jpg"",""stims/mus_c5_sup5.jpg"",""stims/mus_c5_bas3.jpg"",""stims/sea_c6_sup4.jpg"",""stims/fru_c4_sup5.jpg"",""stims/mus_c5_bas4.jpg"",""stims/mus_c5_sup6.jpg"",""stims/fru_c4_sub5.jpg"",""stims/sea_c6_sub5.jpg"",""stims/fru_c4_sub4.jpg"",""stims/mus_c5_sup3.jpg"",""stims/fru_c4_bas3.jpg"",""stims/mus_c5_sup4.jpg"",""stims/mus_c5_sub5.jpg"",""stims/sea_c6_bas4.jpg"",""stims/sea_c6_bas3.jpg"",""stims/sea_c6_sup5.jpg"",""stims/fru_c4_sup3.jpg"",""stims/fru_c4_sup6.jpg""]","hypernym","sea","broad","NOT a roozer","","","","","","","","","","",""
"survey-html-form","25","102740","0.0-25.0","TsuWwJvCatActhNhqdYMKsE","p111231","","","","","","","","","","","","","","","2546","","{""name_check"":""roozer""}","[""stims/sea_c6_sub1.jpg"",""stims/sea_c6_sup1.jpg"",""stims/sea_c6_sup2.jpg""]","roozer","[""stims/fru_c4_sup3.jpg"",""stims/mus_c5_bas3.jpg"",""stims/fru_c4_sub4.jpg"",""stims/sea_c6_sub4.jpg"",""stims/mus_c5_sup3.jpg"",""stims/sea_c6_sup3.jpg"",""stims/mus_c5_sub4.jpg"",""stims/sea_c6_bas3.jpg"",""stims/fru_c4_bas3.jpg""]","[""NOT a roozer"",""NOT a roozer"",""NOT a roozer"",""roozer"",""NOT a roozer"",""roozer"",""NOT a roozer"",""roozer"",""NOT a roozer""]","[""stims/sea_c6_sub4.jpg"",""stims/sea_c6_sup6.jpg"",""stims/fru_c4_bas4.jpg"",""stims/mus_c5_sub4.jpg"",""stims/sea_c6_sup3.jpg"",""stims/fru_c4_sup4.jpg"",""stims/mus_c5_sup5.jpg"",""stims/mus_c5_bas3.jpg"",""stims/sea_c6_sup4.jpg"",""stims/fru_c4_sup5.jpg"",""stims/mus_c5_bas4.jpg"",""stims/mus_c5_sup6.jpg"",""stims/fru_c4_sub5.jpg"",""stims/sea_c6_sub5.jpg"",""stims/fru_c4_sub4.jpg"",""stims/mus_c5_sup3.jpg"",""stims/fru_c4_bas3.jpg"",""stims/mus_c5_sup4.jpg"",""stims/mus_c5_sub5.jpg"",""stims/sea_c6_bas4.jpg"",""stims/sea_c6_bas3.jpg"",""stims/sea_c6_sup5.jpg"",""stims/fru_c4_sup3.jpg"",""stims/fru_c4_sup6.jpg""]","hypernym","sea","broad","NOT a roozer","","","","","","","","","","",""
"html-button-response-cols","26","109872","0.0-26.0","TsuWwJvCatActhNhqdYMKsE","p111231","","","","","","","","","","","","","","","7128.5","<div id=""container""><p><b><font size=""4.5"">Your job is to figure out which objects are roozers and which are not.</font></b><style=""text-align:center;"" /p><p><b><font size=""4.5"">These are 3 roozers.</font></b><style=""text-align:center;"" /p><div class=""row""><div class=""column""><figure><img src=""stims/sea_c6_sub1.jpg"" style=""width:70%""><figcaption style=""font-size:24px"">roozer</figcaption></figure></div><div class=""column""><figure><img src=""stims/sea_c6_sup1.jpg"" style=""width:70%""><figcaption style=""font-size:24px"">roozer</figcaption></figure></div><div class=""column""><figure><img src=""stims/sea_c6_sup2.jpg"" style=""width:70%""><figcaption style=""font-size:24px"">roozer</figcaption></figure></div><div class=""column""><img src=""stims/sea_c6_sub1.jpg"" style=""width:70%;opacity:0""></div></div><p><b><font size=""4.5"">Which of these nine objects would you like to learn the name of? You can only make one choice, so choose carefully!</font></b></p><p><i><font size=""4.5"">Click on the object that you would like to know the name of.</font></i><style=""text-align:center;"" /p>","7","[""stims/sea_c6_sub1.jpg"",""stims/sea_c6_sup1.jpg"",""stims/sea_c6_sup2.jpg""]","roozer","[""stims/fru_c4_sup3.jpg"",""stims/mus_c5_bas3.jpg"",""stims/fru_c4_sub4.jpg"",""stims/sea_c6_sub4.jpg"",""stims/mus_c5_sup3.jpg"",""stims/sea_c6_sup3.jpg"",""stims/mus_c5_sub4.jpg"",""stims/sea_c6_bas3.jpg"",""stims/fru_c4_bas3.jpg""]","[""NOT a roozer"",""NOT a roozer"",""NOT a roozer"",""roozer"",""NOT a roozer"",""roozer"",""NOT a roozer"",""roozer"",""NOT a roozer""]","[""stims/sea_c6_sub4.jpg"",""stims/sea_c6_sup6.jpg"",""stims/fru_c4_bas4.jpg"",""stims/mus_c5_sub4.jpg"",""stims/sea_c6_sup3.jpg"",""stims/fru_c4_sup4.jpg"",""stims/mus_c5_sup5.jpg"",""stims/mus_c5_bas3.jpg"",""stims/sea_c6_sup4.jpg"",""stims/fru_c4_sup5.jpg"",""stims/mus_c5_bas4.jpg"",""stims/mus_c5_sup6.jpg"",""stims/fru_c4_sub5.jpg"",""stims/sea_c6_sub5.jpg"",""stims/fru_c4_sub4.jpg"",""stims/mus_c5_sup3.jpg"",""stims/fru_c4_bas3.jpg"",""stims/mus_c5_sup4.jpg"",""stims/mus_c5_sub5.jpg"",""stims/sea_c6_bas4.jpg"",""stims/sea_c6_bas3.jpg"",""stims/sea_c6_sup5.jpg"",""stims/fru_c4_sup3.jpg"",""stims/fru_c4_sup6.jpg""]","hypernym","sea","broad","NOT a roozer","","","","","","","","","","",""
"html-button-response","27","111000","0.0-27.0","TsuWwJvCatActhNhqdYMKsE","p111231","","","","","","","","","","","","","","","1124.8000000715256","<div id=""container""><p><b><font size=""4.5"">The image you selected is a <span style=""color:#ff0000""><u>roozer</u></span>.</font></b><style=""text-align:center;"" /p><div class=""row""><div class=""column""><figure><img src=""stims/sea_c6_sub1.jpg"" style=""width:70%""><figcaption style=""font-size:24px"">roozer</figcaption></figure></div><div class=""column""><figure><img src=""stims/sea_c6_sup1.jpg"" style=""width:70%""><figcaption style=""font-size:24px"">roozer</figcaption></figure></div><div class=""column""><figure><img src=""stims/sea_c6_sup2.jpg"" style=""width:70%""><figcaption style=""font-size:24px"">roozer</figcaption></figure></div><div class=""column""><figure><img src=""stims/sea_c6_bas3.jpg"" style=""width:70%; border: 5px solid #ff0000; padding: 6px""><figcaption style=""font-size:24px;color:#ff0000"">roozer</figcaption></figure></div class=""column""></div class=""column""></div class=""column""></div class=""column""><div id=""container""><p><b><font size=""4.5"">Next, you will see a set of 24 new objects and decide which of them are roozers.</font></b><div id=""container""><p><b><font size=""4.5"">Your goal is to select <u>all</u> of the roozers.</font></b><p><i><font size=""4.5"">Click Next to continue.</font></i><style=""text-align:center;"" /p><style=""text-align:center;"" /p></div>","0","[""stims/sea_c6_sub1.jpg"",""stims/sea_c6_sup1.jpg"",""stims/sea_c6_sup2.jpg""]","roozer","[""stims/fru_c4_sup3.jpg"",""stims/mus_c5_bas3.jpg"",""stims/fru_c4_sub4.jpg"",""stims/sea_c6_sub4.jpg"",""stims/mus_c5_sup3.jpg"",""stims/sea_c6_sup3.jpg"",""stims/mus_c5_sub4.jpg"",""stims/sea_c6_bas3.jpg"",""stims/fru_c4_bas3.jpg""]","[""NOT a roozer"",""NOT a roozer"",""NOT a roozer"",""roozer"",""NOT a roozer"",""roozer"",""NOT a roozer"",""roozer"",""NOT a roozer""]","[""stims/sea_c6_sub4.jpg"",""stims/sea_c6_sup6.jpg"",""stims/fru_c4_bas4.jpg"",""stims/mus_c5_sub4.jpg"",""stims/sea_c6_sup3.jpg"",""stims/fru_c4_sup4.jpg"",""stims/mus_c5_sup5.jpg"",""stims/mus_c5_bas3.jpg"",""stims/sea_c6_sup4.jpg"",""stims/fru_c4_sup5.jpg"",""stims/mus_c5_bas4.jpg"",""stims/mus_c5_sup6.jpg"",""stims/fru_c4_sub5.jpg"",""stims/sea_c6_sub5.jpg"",""stims/fru_c4_sub4.jpg"",""stims/mus_c5_sup3.jpg"",""stims/fru_c4_bas3.jpg"",""stims/mus_c5_sup4.jpg"",""stims/mus_c5_sub5.jpg"",""stims/sea_c6_bas4.jpg"",""stims/sea_c6_bas3.jpg"",""stims/sea_c6_sup5.jpg"",""stims/fru_c4_sup3.jpg"",""stims/fru_c4_sup6.jpg""]","hypernym","sea","broad","NOT a roozer","stims/sea_c6_bas3.jpg","roozer","1","","","","","","","",""
"html-button-response-catact","28","122858","0.0-28.0","TsuWwJvCatActhNhqdYMKsE","p111231","","","","","","","","","","","","","","","","","","[""stims/sea_c6_sub1.jpg"",""stims/sea_c6_sup1.jpg"",""stims/sea_c6_sup2.jpg""]","roozer","[""stims/fru_c4_sup3.jpg"",""stims/mus_c5_bas3.jpg"",""stims/fru_c4_sub4.jpg"",""stims/sea_c6_sub4.jpg"",""stims/mus_c5_sup3.jpg"",""stims/sea_c6_sup3.jpg"",""stims/mus_c5_sub4.jpg"",""stims/sea_c6_bas3.jpg"",""stims/fru_c4_bas3.jpg""]","[""NOT a roozer"",""NOT a roozer"",""NOT a roozer"",""roozer"",""NOT a roozer"",""roozer"",""NOT a roozer"",""roozer"",""NOT a roozer""]","[""stims/sea_c6_sub4.jpg"",""stims/sea_c6_sup6.jpg"",""stims/fru_c4_bas4.jpg"",""stims/mus_c5_sub4.jpg"",""stims/sea_c6_sup3.jpg"",""stims/fru_c4_sup4.jpg"",""stims/mus_c5_sup5.jpg"",""stims/mus_c5_bas3.jpg"",""stims/sea_c6_sup4.jpg"",""stims/fru_c4_sup5.jpg"",""stims/mus_c5_bas4.jpg"",""stims/mus_c5_sup6.jpg"",""stims/fru_c4_sub5.jpg"",""stims/sea_c6_sub5.jpg"",""stims/fru_c4_sub4.jpg"",""stims/mus_c5_sup3.jpg"",""stims/fru_c4_bas3.jpg"",""stims/mus_c5_sup4.jpg"",""stims/mus_c5_sub5.jpg"",""stims/sea_c6_bas4.jpg"",""stims/sea_c6_bas3.jpg"",""stims/sea_c6_sup5.jpg"",""stims/fru_c4_sup3.jpg"",""stims/fru_c4_sup6.jpg""]","hypernym","sea","broad","NOT a roozer","stims/sea_c6_bas3.jpg","roozer","","[""stims/sea_c6_sub4.jpg"",""stims/sea_c6_sup6.jpg"",""stims/sea_c6_sup3.jpg"",""stims/sea_c6_sup5.jpg"",""stims/sea_c6_bas3.jpg"",""stims/sea_c6_bas4.jpg"",""stims/sea_c6_sub5.jpg"",""stims/sea_c6_sup4.jpg""]","[""0"",""1"",""4"",""21"",""20"",""19"",""13"",""8""]","[1857.7999999523163,2589.2999999523163,3218.600000023842,4985.100000023842,5379.200000047684,5830.600000023842,6459.700000047684,7919]","[""select"",""select"",""select"",""select"",""select"",""select"",""select"",""select""]","[""stims/sea_c6_sub4.jpg"",""stims/sea_c6_sup6.jpg"",""stims/sea_c6_sup3.jpg"",""stims/sea_c6_sup5.jpg"",""stims/sea_c6_bas3.jpg"",""stims/sea_c6_bas4.jpg"",""stims/sea_c6_sub5.jpg"",""stims/sea_c6_sup4.jpg""]","11853.5","",""
"survey-html-form","29","126508","0.0-29.0","TsuWwJvCatActhNhqdYMKsE","p111231","","","","","","","","","","","","","","","3648","","{""word_meaning"":""sea creature""}","[""stims/sea_c6_sub1.jpg"",""stims/sea_c6_sup1.jpg"",""stims/sea_c6_sup2.jpg""]","roozer","[""stims/fru_c4_sup3.jpg"",""stims/mus_c5_bas3.jpg"",""stims/fru_c4_sub4.jpg"",""stims/sea_c6_sub4.jpg"",""stims/mus_c5_sup3.jpg"",""stims/sea_c6_sup3.jpg"",""stims/mus_c5_sub4.jpg"",""stims/sea_c6_bas3.jpg"",""stims/fru_c4_bas3.jpg""]","[""NOT a roozer"",""NOT a roozer"",""NOT a roozer"",""roozer"",""NOT a roozer"",""roozer"",""NOT a roozer"",""roozer"",""NOT a roozer""]","[""stims/sea_c6_sub4.jpg"",""stims/sea_c6_sup6.jpg"",""stims/fru_c4_bas4.jpg"",""stims/mus_c5_sub4.jpg"",""stims/sea_c6_sup3.jpg"",""stims/fru_c4_sup4.jpg"",""stims/mus_c5_sup5.jpg"",""stims/mus_c5_bas3.jpg"",""stims/sea_c6_sup4.jpg"",""stims/fru_c4_sup5.jpg"",""stims/mus_c5_bas4.jpg"",""stims/mus_c5_sup6.jpg"",""stims/fru_c4_sub5.jpg"",""stims/sea_c6_sub5.jpg"",""stims/fru_c4_sub4.jpg"",""stims/mus_c5_sup3.jpg"",""stims/fru_c4_bas3.jpg"",""stims/mus_c5_sup4.jpg"",""stims/mus_c5_sub5.jpg"",""stims/sea_c6_bas4.jpg"",""stims/sea_c6_bas3.jpg"",""stims/sea_c6_sup5.jpg"",""stims/fru_c4_sup3.jpg"",""stims/fru_c4_sup6.jpg""]","hypernym","sea","broad","NOT a roozer","","","","","","","","","","",""
"html-button-response","30","127234","0.0-30.0","TsuWwJvCatActhNhqdYMKsE","p111231","","","","","","","","","","","","","","","723.9000000953674","<div id=""container""><p><b><font size=""4.5"">Great job!</font></b></p><p><i><font size=""4.5"">Click Next to learn another word.</font></i></p> </div>","0","","","","","","","","","","","","","","","","","","","",""
"html-button-response","31","129636","0.0-31.0","TsuWwJvCatActhNhqdYMKsE","p111231","","","","","","","","","","","","","","","2399.100000023842","<div id=""container""><p><b><font size=""4.5"">Your job is to figure out which objects are kitas and which are not.</font></b><style=""text-align:center;"" /p><p><b><font size=""4.5"">These are 3 kitas.</font></b><style=""text-align:center;"" /p><div class=""row""><div class=""column""><figure><img src=""stims/fru_c4_sub1.jpg"" style=""width:70%""><figcaption style=""font-size:24px"">kita</figcaption></figure></div><div class=""column""><figure><img src=""stims/fru_c4_bas1.jpg"" style=""width:70%""><figcaption style=""font-size:24px"">kita</figcaption></figure></div><div class=""column""><figure><img src=""stims/fru_c4_bas2.jpg"" style=""width:70%""><figcaption style=""font-size:24px"">kita</figcaption></figure></div><div class=""column""><img src=""stims/fru_c4_sub1.jpg"" style=""width:70%;opacity:0""></div></div><p><b><font size=""4.5"">On the next page, we will check your memory of this new word. Make sure you look at the three examples and the new word carefully.</font></b><style=""text-align:center;"" /p><p><i>Click Next when you are ready to continue.</font></i><style=""text-align:center;"" /p></div>","0","[""stims/fru_c4_sub1.jpg"",""stims/fru_c4_bas1.jpg"",""stims/fru_c4_bas2.jpg""]","kita","[""stims/fru_c4_bas3.jpg"",""stims/sea_c6_sup3.jpg"",""stims/mus_c5_sup3.jpg"",""stims/mus_c5_bas3.jpg"",""stims/sea_c6_sub4.jpg"",""stims/sea_c6_bas3.jpg"",""stims/fru_c4_sup3.jpg"",""stims/mus_c5_sub4.jpg"",""stims/fru_c4_sub4.jpg""]","[""kita"",""NOT a kita"",""NOT a kita"",""NOT a kita"",""NOT a kita"",""NOT a kita"",""kita"",""NOT a kita"",""kita""]","[""stims/fru_c4_sup4.jpg"",""stims/mus_c5_bas4.jpg"",""stims/mus_c5_sup4.jpg"",""stims/mus_c5_bas3.jpg"",""stims/fru_c4_sub4.jpg"",""stims/fru_c4_sup5.jpg"",""stims/mus_c5_sub5.jpg"",""stims/mus_c5_sup6.jpg"",""stims/mus_c5_sup3.jpg"",""stims/sea_c6_sup6.jpg"",""stims/sea_c6_bas3.jpg"",""stims/sea_c6_sup4.jpg"",""stims/fru_c4_sup6.jpg"",""stims/fru_c4_bas4.jpg"",""stims/sea_c6_sup3.jpg"",""stims/sea_c6_sup5.jpg"",""stims/sea_c6_sub4.jpg"",""stims/fru_c4_sup3.jpg"",""stims/sea_c6_sub5.jpg"",""stims/mus_c5_sub4.jpg"",""stims/mus_c5_sup5.jpg"",""stims/sea_c6_bas4.jpg"",""stims/fru_c4_bas3.jpg"",""stims/fru_c4_sub5.jpg""]","broad","fruits","intermediate","NOT a kita","","","","","","","","","","",""
"survey-html-form","32","131556","0.0-32.0","TsuWwJvCatActhNhqdYMKsE","p111231","","","","","","","","","","","","","","","1915.4000000953674","","{""name_check"":""kita""}","[""stims/fru_c4_sub1.jpg"",""stims/fru_c4_bas1.jpg"",""stims/fru_c4_bas2.jpg""]","kita","[""stims/fru_c4_bas3.jpg"",""stims/sea_c6_sup3.jpg"",""stims/mus_c5_sup3.jpg"",""stims/mus_c5_bas3.jpg"",""stims/sea_c6_sub4.jpg"",""stims/sea_c6_bas3.jpg"",""stims/fru_c4_sup3.jpg"",""stims/mus_c5_sub4.jpg"",""stims/fru_c4_sub4.jpg""]","[""kita"",""NOT a kita"",""NOT a kita"",""NOT a kita"",""NOT a kita"",""NOT a kita"",""kita"",""NOT a kita"",""kita""]","[""stims/fru_c4_sup4.jpg"",""stims/mus_c5_bas4.jpg"",""stims/mus_c5_sup4.jpg"",""stims/mus_c5_bas3.jpg"",""stims/fru_c4_sub4.jpg"",""stims/fru_c4_sup5.jpg"",""stims/mus_c5_sub5.jpg"",""stims/mus_c5_sup6.jpg"",""stims/mus_c5_sup3.jpg"",""stims/sea_c6_sup6.jpg"",""stims/sea_c6_bas3.jpg"",""stims/sea_c6_sup4.jpg"",""stims/fru_c4_sup6.jpg"",""stims/fru_c4_bas4.jpg"",""stims/sea_c6_sup3.jpg"",""stims/sea_c6_sup5.jpg"",""stims/sea_c6_sub4.jpg"",""stims/fru_c4_sup3.jpg"",""stims/sea_c6_sub5.jpg"",""stims/mus_c5_sub4.jpg"",""stims/mus_c5_sup5.jpg"",""stims/sea_c6_bas4.jpg"",""stims/fru_c4_bas3.jpg"",""stims/fru_c4_sub5.jpg""]","broad","fruits","intermediate","NOT a kita","","","","","","","","","","",""
"html-button-response-cols","33","133515","0.0-33.0","TsuWwJvCatActhNhqdYMKsE","p111231","","","","","","","","","","","","","","","1955","<div id=""container""><p><b><font size=""4.5"">Your job is to figure out which objects are kitas and which are not.</font></b><style=""text-align:center;"" /p><p><b><font size=""4.5"">These are 3 kitas.</font></b><style=""text-align:center;"" /p><div class=""row""><div class=""column""><figure><img src=""stims/fru_c4_sub1.jpg"" style=""width:70%""><figcaption style=""font-size:24px"">kita</figcaption></figure></div><div class=""column""><figure><img src=""stims/fru_c4_bas1.jpg"" style=""width:70%""><figcaption style=""font-size:24px"">kita</figcaption></figure></div><div class=""column""><figure><img src=""stims/fru_c4_bas2.jpg"" style=""width:70%""><figcaption style=""font-size:24px"">kita</figcaption></figure></div><div class=""column""><img src=""stims/fru_c4_sub1.jpg"" style=""width:70%;opacity:0""></div></div><p><b><font size=""4.5"">Which of these nine objects would you like to learn the name of? You can only make one choice, so choose carefully!</font></b></p><p><i><font size=""4.5"">Click on the object that you would like to know the name of.</font></i><style=""text-align:center;"" /p>","6","[""stims/fru_c4_sub1.jpg"",""stims/fru_c4_bas1.jpg"",""stims/fru_c4_bas2.jpg""]","kita","[""stims/fru_c4_bas3.jpg"",""stims/sea_c6_sup3.jpg"",""stims/mus_c5_sup3.jpg"",""stims/mus_c5_bas3.jpg"",""stims/sea_c6_sub4.jpg"",""stims/sea_c6_bas3.jpg"",""stims/fru_c4_sup3.jpg"",""stims/mus_c5_sub4.jpg"",""stims/fru_c4_sub4.jpg""]","[""kita"",""NOT a kita"",""NOT a kita"",""NOT a kita"",""NOT a kita"",""NOT a kita"",""kita"",""NOT a kita"",""kita""]","[""stims/fru_c4_sup4.jpg"",""stims/mus_c5_bas4.jpg"",""stims/mus_c5_sup4.jpg"",""stims/mus_c5_bas3.jpg"",""stims/fru_c4_sub4.jpg"",""stims/fru_c4_sup5.jpg"",""stims/mus_c5_sub5.jpg"",""stims/mus_c5_sup6.jpg"",""stims/mus_c5_sup3.jpg"",""stims/sea_c6_sup6.jpg"",""stims/sea_c6_bas3.jpg"",""stims/sea_c6_sup4.jpg"",""stims/fru_c4_sup6.jpg"",""stims/fru_c4_bas4.jpg"",""stims/sea_c6_sup3.jpg"",""stims/sea_c6_sup5.jpg"",""stims/sea_c6_sub4.jpg"",""stims/fru_c4_sup3.jpg"",""stims/sea_c6_sub5.jpg"",""stims/mus_c5_sub4.jpg"",""stims/mus_c5_sup5.jpg"",""stims/sea_c6_bas4.jpg"",""stims/fru_c4_bas3.jpg"",""stims/fru_c4_sub5.jpg""]","broad","fruits","intermediate","NOT a kita","","","","","","","","","","",""
"html-button-response","34","135126","0.0-34.0","TsuWwJvCatActhNhqdYMKsE","p111231","","","","","","","","","","","","","","","1608.1000000238419","<div id=""container""><p><b><font size=""4.5"">The image you selected is a <span style=""color:#ff0000""><u>kita</u></span>.</font></b><style=""text-align:center;"" /p><div class=""row""><div class=""column""><figure><img src=""stims/fru_c4_sub1.jpg"" style=""width:70%""><figcaption style=""font-size:24px"">kita</figcaption></figure></div><div class=""column""><figure><img src=""stims/fru_c4_bas1.jpg"" style=""width:70%""><figcaption style=""font-size:24px"">kita</figcaption></figure></div><div class=""column""><figure><img src=""stims/fru_c4_bas2.jpg"" style=""width:70%""><figcaption style=""font-size:24px"">kita</figcaption></figure></div><div class=""column""><figure><img src=""stims/fru_c4_sup3.jpg"" style=""width:70%; border: 5px solid #ff0000; padding: 6px""><figcaption style=""font-size:24px;color:#ff0000"">kita</figcaption></figure></div class=""column""></div class=""column""></div class=""column""></div class=""column""><div id=""container""><p><b><font size=""4.5"">Next, you will see a set of 24 new objects and decide which of them are kitas.</font></b><div id=""container""><p><b><font size=""4.5"">Your goal is to select <u>all</u> of the kitas.</font></b><p><i><font size=""4.5"">Click Next to continue.</font></i><style=""text-align:center;"" /p><style=""text-align:center;"" /p></div>","0","[""stims/fru_c4_sub1.jpg"",""stims/fru_c4_bas1.jpg"",""stims/fru_c4_bas2.jpg""]","kita","[""stims/fru_c4_bas3.jpg"",""stims/sea_c6_sup3.jpg"",""stims/mus_c5_sup3.jpg"",""stims/mus_c5_bas3.jpg"",""stims/sea_c6_sub4.jpg"",""stims/sea_c6_bas3.jpg"",""stims/fru_c4_sup3.jpg"",""stims/mus_c5_sub4.jpg"",""stims/fru_c4_sub4.jpg""]","[""kita"",""NOT a kita"",""NOT a kita"",""NOT a kita"",""NOT a kita"",""NOT a kita"",""kita"",""NOT a kita"",""kita""]","[""stims/fru_c4_sup4.jpg"",""stims/mus_c5_bas4.jpg"",""stims/mus_c5_sup4.jpg"",""stims/mus_c5_bas3.jpg"",""stims/fru_c4_sub4.jpg"",""stims/fru_c4_sup5.jpg"",""stims/mus_c5_sub5.jpg"",""stims/mus_c5_sup6.jpg"",""stims/mus_c5_sup3.jpg"",""stims/sea_c6_sup6.jpg"",""stims/sea_c6_bas3.jpg"",""stims/sea_c6_sup4.jpg"",""stims/fru_c4_sup6.jpg"",""stims/fru_c4_bas4.jpg"",""stims/sea_c6_sup3.jpg"",""stims/sea_c6_sup5.jpg"",""stims/sea_c6_sub4.jpg"",""stims/fru_c4_sup3.jpg"",""stims/sea_c6_sub5.jpg"",""stims/mus_c5_sub4.jpg"",""stims/mus_c5_sup5.jpg"",""stims/sea_c6_bas4.jpg"",""stims/fru_c4_bas3.jpg"",""stims/fru_c4_sub5.jpg""]","broad","fruits","intermediate","NOT a kita","stims/fru_c4_sup3.jpg","kita","1","","","","","","","",""
"html-button-response-catact","35","147539","0.0-35.0","TsuWwJvCatActhNhqdYMKsE","p111231","","","","","","","","","","","","","","","","","","[""stims/fru_c4_sub1.jpg"",""stims/fru_c4_bas1.jpg"",""stims/fru_c4_bas2.jpg""]","kita","[""stims/fru_c4_bas3.jpg"",""stims/sea_c6_sup3.jpg"",""stims/mus_c5_sup3.jpg"",""stims/mus_c5_bas3.jpg"",""stims/sea_c6_sub4.jpg"",""stims/sea_c6_bas3.jpg"",""stims/fru_c4_sup3.jpg"",""stims/mus_c5_sub4.jpg"",""stims/fru_c4_sub4.jpg""]","[""kita"",""NOT a kita"",""NOT a kita"",""NOT a kita"",""NOT a kita"",""NOT a kita"",""kita"",""NOT a kita"",""kita""]","[""stims/fru_c4_sup4.jpg"",""stims/mus_c5_bas4.jpg"",""stims/mus_c5_sup4.jpg"",""stims/mus_c5_bas3.jpg"",""stims/fru_c4_sub4.jpg"",""stims/fru_c4_sup5.jpg"",""stims/mus_c5_sub5.jpg"",""stims/mus_c5_sup6.jpg"",""stims/mus_c5_sup3.jpg"",""stims/sea_c6_sup6.jpg"",""stims/sea_c6_bas3.jpg"",""stims/sea_c6_sup4.jpg"",""stims/fru_c4_sup6.jpg"",""stims/fru_c4_bas4.jpg"",""stims/sea_c6_sup3.jpg"",""stims/sea_c6_sup5.jpg"",""stims/sea_c6_sub4.jpg"",""stims/fru_c4_sup3.jpg"",""stims/sea_c6_sub5.jpg"",""stims/mus_c5_sub4.jpg"",""stims/mus_c5_sup5.jpg"",""stims/sea_c6_bas4.jpg"",""stims/fru_c4_bas3.jpg"",""stims/fru_c4_sub5.jpg""]","broad","fruits","intermediate","NOT a kita","stims/fru_c4_sup3.jpg","kita","","[""stims/fru_c4_sup4.jpg"",""stims/fru_c4_sub4.jpg"",""stims/fru_c4_bas4.jpg"",""stims/fru_c4_sup6.jpg"",""stims/fru_c4_bas3.jpg"",""stims/fru_c4_sub5.jpg"",""stims/fru_c4_sup3.jpg"",""stims/fru_c4_sup5.jpg""]","[""0"",""4"",""13"",""12"",""22"",""23"",""17"",""5""]","[2042.8000000715256,2712.600000023842,3841.100000023842,4567,5736.399999976158,6347.5,6856.399999976158,9474.899999976158]","[""select"",""select"",""select"",""select"",""select"",""select"",""select"",""select""]","[""stims/fru_c4_sup4.jpg"",""stims/fru_c4_sub4.jpg"",""stims/fru_c4_bas4.jpg"",""stims/fru_c4_sup6.jpg"",""stims/fru_c4_bas3.jpg"",""stims/fru_c4_sub5.jpg"",""stims/fru_c4_sup3.jpg"",""stims/fru_c4_sup5.jpg""]","12409.300000071526","",""
"survey-html-form","36","150078","0.0-36.0","TsuWwJvCatActhNhqdYMKsE","p111231","","","","","","","","","","","","","","","2536.100000023842","","{""word_meaning"":""fruit""}","[""stims/fru_c4_sub1.jpg"",""stims/fru_c4_bas1.jpg"",""stims/fru_c4_bas2.jpg""]","kita","[""stims/fru_c4_bas3.jpg"",""stims/sea_c6_sup3.jpg"",""stims/mus_c5_sup3.jpg"",""stims/mus_c5_bas3.jpg"",""stims/sea_c6_sub4.jpg"",""stims/sea_c6_bas3.jpg"",""stims/fru_c4_sup3.jpg"",""stims/mus_c5_sub4.jpg"",""stims/fru_c4_sub4.jpg""]","[""kita"",""NOT a kita"",""NOT a kita"",""NOT a kita"",""NOT a kita"",""NOT a kita"",""kita"",""NOT a kita"",""kita""]","[""stims/fru_c4_sup4.jpg"",""stims/mus_c5_bas4.jpg"",""stims/mus_c5_sup4.jpg"",""stims/mus_c5_bas3.jpg"",""stims/fru_c4_sub4.jpg"",""stims/fru_c4_sup5.jpg"",""stims/mus_c5_sub5.jpg"",""stims/mus_c5_sup6.jpg"",""stims/mus_c5_sup3.jpg"",""stims/sea_c6_sup6.jpg"",""stims/sea_c6_bas3.jpg"",""stims/sea_c6_sup4.jpg"",""stims/fru_c4_sup6.jpg"",""stims/fru_c4_bas4.jpg"",""stims/sea_c6_sup3.jpg"",""stims/sea_c6_sup5.jpg"",""stims/sea_c6_sub4.jpg"",""stims/fru_c4_sup3.jpg"",""stims/sea_c6_sub5.jpg"",""stims/mus_c5_sub4.jpg"",""stims/mus_c5_sup5.jpg"",""stims/sea_c6_bas4.jpg"",""stims/fru_c4_bas3.jpg"",""stims/fru_c4_sub5.jpg""]","broad","fruits","intermediate","NOT a kita","","","","","","","","","","",""
"html-button-response","37","150893","0.0-37.0","TsuWwJvCatActhNhqdYMKsE","p111231","","","","","","","","","","","","","","","813.8999999761581","<div id=""container""><p><b><font size=""4.5"">Great job!</font></b></p><p><i><font size=""4.5"">Click Next to learn another word.</font></i></p> </div>","0","","","","","","","","","","","","","","","","","","","",""
"html-button-response","38","153190","0.0-38.0","TsuWwJvCatActhNhqdYMKsE","p111231","","","","","","","","","","","","","","","2294.100000023842","<div id=""container""><p><b><font size=""4.5"">Your job is to figure out which objects are beppos and which are not.</font></b><style=""text-align:center;"" /p><p><b><font size=""4.5"">These are 3 beppos.</font></b><style=""text-align:center;"" /p><div class=""row""><div class=""column""><figure><img src=""stims/mus_c5_sub1.jpg"" style=""width:70%""><figcaption style=""font-size:24px"">beppo</figcaption></figure></div><div class=""column""><figure><img src=""stims/mus_c5_sub2.jpg"" style=""width:70%""><figcaption style=""font-size:24px"">beppo</figcaption></figure></div><div class=""column""><figure><img src=""stims/mus_c5_sub3.jpg"" style=""width:70%""><figcaption style=""font-size:24px"">beppo</figcaption></figure></div><div class=""column""><img src=""stims/mus_c5_sub1.jpg"" style=""width:70%;opacity:0""></div></div><p><b><font size=""4.5"">On the next page, we will check your memory of this new word. Make sure you look at the three examples and the new word carefully.</font></b><style=""text-align:center;"" /p><p><i>Click Next when you are ready to continue.</font></i><style=""text-align:center;"" /p></div>","0","[""stims/mus_c5_sub1.jpg"",""stims/mus_c5_sub2.jpg"",""stims/mus_c5_sub3.jpg""]","beppo","[""stims/mus_c5_bas3.jpg"",""stims/sea_c6_sup3.jpg"",""stims/mus_c5_sup3.jpg"",""stims/fru_c4_sub4.jpg"",""stims/sea_c6_bas3.jpg"",""stims/sea_c6_sub4.jpg"",""stims/fru_c4_bas3.jpg"",""stims/fru_c4_sup3.jpg"",""stims/mus_c5_sub4.jpg""]","[""NOT a beppo"",""NOT a beppo"",""NOT a beppo"",""NOT a beppo"",""NOT a beppo"",""NOT a beppo"",""NOT a beppo"",""NOT a beppo"",""beppo""]","[""stims/fru_c4_sub5.jpg"",""stims/mus_c5_bas3.jpg"",""stims/fru_c4_sup6.jpg"",""stims/mus_c5_sup3.jpg"",""stims/fru_c4_sup4.jpg"",""stims/sea_c6_bas3.jpg"",""stims/sea_c6_sub4.jpg"",""stims/sea_c6_sup6.jpg"",""stims/sea_c6_sup5.jpg"",""stims/fru_c4_sub4.jpg"",""stims/mus_c5_sup5.jpg"",""stims/fru_c4_bas4.jpg"",""stims/sea_c6_sub5.jpg"",""stims/sea_c6_bas4.jpg"",""stims/mus_c5_sub5.jpg"",""stims/mus_c5_sup4.jpg"",""stims/fru_c4_sup3.jpg"",""stims/sea_c6_sup3.jpg"",""stims/mus_c5_sub4.jpg"",""stims/fru_c4_sup5.jpg"",""stims/sea_c6_sup4.jpg"",""stims/mus_c5_bas4.jpg"",""stims/fru_c4_bas3.jpg"",""stims/mus_c5_sup6.jpg""]","narrow","music","narrow","NOT a beppo","","","","","","","","","","",""
"survey-html-form","39","155979","0.0-39.0","TsuWwJvCatActhNhqdYMKsE","p111231","","","","","","","","","","","","","","","2785","","{""name_check"":""beppo""}","[""stims/mus_c5_sub1.jpg"",""stims/mus_c5_sub2.jpg"",""stims/mus_c5_sub3.jpg""]","beppo","[""stims/mus_c5_bas3.jpg"",""stims/sea_c6_sup3.jpg"",""stims/mus_c5_sup3.jpg"",""stims/fru_c4_sub4.jpg"",""stims/sea_c6_bas3.jpg"",""stims/sea_c6_sub4.jpg"",""stims/fru_c4_bas3.jpg"",""stims/fru_c4_sup3.jpg"",""stims/mus_c5_sub4.jpg""]","[""NOT a beppo"",""NOT a beppo"",""NOT a beppo"",""NOT a beppo"",""NOT a beppo"",""NOT a beppo"",""NOT a beppo"",""NOT a beppo"",""beppo""]","[""stims/fru_c4_sub5.jpg"",""stims/mus_c5_bas3.jpg"",""stims/fru_c4_sup6.jpg"",""stims/mus_c5_sup3.jpg"",""stims/fru_c4_sup4.jpg"",""stims/sea_c6_bas3.jpg"",""stims/sea_c6_sub4.jpg"",""stims/sea_c6_sup6.jpg"",""stims/sea_c6_sup5.jpg"",""stims/fru_c4_sub4.jpg"",""stims/mus_c5_sup5.jpg"",""stims/fru_c4_bas4.jpg"",""stims/sea_c6_sub5.jpg"",""stims/sea_c6_bas4.jpg"",""stims/mus_c5_sub5.jpg"",""stims/mus_c5_sup4.jpg"",""stims/fru_c4_sup3.jpg"",""stims/sea_c6_sup3.jpg"",""stims/mus_c5_sub4.jpg"",""stims/fru_c4_sup5.jpg"",""stims/sea_c6_sup4.jpg"",""stims/mus_c5_bas4.jpg"",""stims/fru_c4_bas3.jpg"",""stims/mus_c5_sup6.jpg""]","narrow","music","narrow","NOT a beppo","","","","","","","","","","",""
"html-button-response-cols","40","158881","0.0-40.0","TsuWwJvCatActhNhqdYMKsE","p111231","","","","","","","","","","","","","","","2898.3000000715256","<div id=""container""><p><b><font size=""4.5"">Your job is to figure out which objects are beppos and which are not.</font></b><style=""text-align:center;"" /p><p><b><font size=""4.5"">These are 3 beppos.</font></b><style=""text-align:center;"" /p><div class=""row""><div class=""column""><figure><img src=""stims/mus_c5_sub1.jpg"" style=""width:70%""><figcaption style=""font-size:24px"">beppo</figcaption></figure></div><div class=""column""><figure><img src=""stims/mus_c5_sub2.jpg"" style=""width:70%""><figcaption style=""font-size:24px"">beppo</figcaption></figure></div><div class=""column""><figure><img src=""stims/mus_c5_sub3.jpg"" style=""width:70%""><figcaption style=""font-size:24px"">beppo</figcaption></figure></div><div class=""column""><img src=""stims/mus_c5_sub1.jpg"" style=""width:70%;opacity:0""></div></div><p><b><font size=""4.5"">Which of these nine objects would you like to learn the name of? You can only make one choice, so choose carefully!</font></b></p><p><i><font size=""4.5"">Click on the object that you would like to know the name of.</font></i><style=""text-align:center;"" /p>","2","[""stims/mus_c5_sub1.jpg"",""stims/mus_c5_sub2.jpg"",""stims/mus_c5_sub3.jpg""]","beppo","[""stims/mus_c5_bas3.jpg"",""stims/sea_c6_sup3.jpg"",""stims/mus_c5_sup3.jpg"",""stims/fru_c4_sub4.jpg"",""stims/sea_c6_bas3.jpg"",""stims/sea_c6_sub4.jpg"",""stims/fru_c4_bas3.jpg"",""stims/fru_c4_sup3.jpg"",""stims/mus_c5_sub4.jpg""]","[""NOT a beppo"",""NOT a beppo"",""NOT a beppo"",""NOT a beppo"",""NOT a beppo"",""NOT a beppo"",""NOT a beppo"",""NOT a beppo"",""beppo""]","[""stims/fru_c4_sub5.jpg"",""stims/mus_c5_bas3.jpg"",""stims/fru_c4_sup6.jpg"",""stims/mus_c5_sup3.jpg"",""stims/fru_c4_sup4.jpg"",""stims/sea_c6_bas3.jpg"",""stims/sea_c6_sub4.jpg"",""stims/sea_c6_sup6.jpg"",""stims/sea_c6_sup5.jpg"",""stims/fru_c4_sub4.jpg"",""stims/mus_c5_sup5.jpg"",""stims/fru_c4_bas4.jpg"",""stims/sea_c6_sub5.jpg"",""stims/sea_c6_bas4.jpg"",""stims/mus_c5_sub5.jpg"",""stims/mus_c5_sup4.jpg"",""stims/fru_c4_sup3.jpg"",""stims/sea_c6_sup3.jpg"",""stims/mus_c5_sub4.jpg"",""stims/fru_c4_sup5.jpg"",""stims/sea_c6_sup4.jpg"",""stims/mus_c5_bas4.jpg"",""stims/fru_c4_bas3.jpg"",""stims/mus_c5_sup6.jpg""]","narrow","music","narrow","NOT a beppo","","","","","","","","","","",""
"html-button-response","41","160162","0.0-41.0","TsuWwJvCatActhNhqdYMKsE","p111231","","","","","","","","","","","","","","","1277","<div id=""container""><p><b><font size=""4.5"">The image you selected is <span style=""color:#ff0000""><u>NOT a beppo</u></span>.</font></b><style=""text-align:center;"" /p><div class=""row""><div class=""column""><figure><img src=""stims/mus_c5_sub1.jpg"" style=""width:70%""><figcaption style=""font-size:24px"">beppo</figcaption></figure></div><div class=""column""><figure><img src=""stims/mus_c5_sub2.jpg"" style=""width:70%""><figcaption style=""font-size:24px"">beppo</figcaption></figure></div><div class=""column""><figure><img src=""stims/mus_c5_sub3.jpg"" style=""width:70%""><figcaption style=""font-size:24px"">beppo</figcaption></figure></div><div class=""column""><figure><img src=""stims/mus_c5_sup3.jpg"" style=""width:70%; border: 5px solid #ff0000; padding: 6px""><figcaption style=""font-size:24px;color:#ff0000"">NOT a beppo</figcaption></figure></div class=""column""></div class=""column""></div class=""column""></div class=""column""><div id=""container""><p><b><font size=""4.5"">Next, you will see a set of 24 new objects and decide which of them are beppos.</font></b><div id=""container""><p><b><font size=""4.5"">Your goal is to select <u>all</u> of the beppos.</font></b><p><i><font size=""4.5"">Click Next to continue.</font></i><style=""text-align:center;"" /p><style=""text-align:center;"" /p></div>","0","[""stims/mus_c5_sub1.jpg"",""stims/mus_c5_sub2.jpg"",""stims/mus_c5_sub3.jpg""]","beppo","[""stims/mus_c5_bas3.jpg"",""stims/sea_c6_sup3.jpg"",""stims/mus_c5_sup3.jpg"",""stims/fru_c4_sub4.jpg"",""stims/sea_c6_bas3.jpg"",""stims/sea_c6_sub4.jpg"",""stims/fru_c4_bas3.jpg"",""stims/fru_c4_sup3.jpg"",""stims/mus_c5_sub4.jpg""]","[""NOT a beppo"",""NOT a beppo"",""NOT a beppo"",""NOT a beppo"",""NOT a beppo"",""NOT a beppo"",""NOT a beppo"",""NOT a beppo"",""beppo""]","[""stims/fru_c4_sub5.jpg"",""stims/mus_c5_bas3.jpg"",""stims/fru_c4_sup6.jpg"",""stims/mus_c5_sup3.jpg"",""stims/fru_c4_sup4.jpg"",""stims/sea_c6_bas3.jpg"",""stims/sea_c6_sub4.jpg"",""stims/sea_c6_sup6.jpg"",""stims/sea_c6_sup5.jpg"",""stims/fru_c4_sub4.jpg"",""stims/mus_c5_sup5.jpg"",""stims/fru_c4_bas4.jpg"",""stims/sea_c6_sub5.jpg"",""stims/sea_c6_bas4.jpg"",""stims/mus_c5_sub5.jpg"",""stims/mus_c5_sup4.jpg"",""stims/fru_c4_sup3.jpg"",""stims/sea_c6_sup3.jpg"",""stims/mus_c5_sub4.jpg"",""stims/fru_c4_sup5.jpg"",""stims/sea_c6_sup4.jpg"",""stims/mus_c5_bas4.jpg"",""stims/fru_c4_bas3.jpg"",""stims/mus_c5_sup6.jpg""]","narrow","music","narrow","NOT a beppo","stims/mus_c5_sup3.jpg","NOT a beppo","0","","","","","","","",""
"html-button-response-catact","42","173043","0.0-42.0","TsuWwJvCatActhNhqdYMKsE","p111231","","","","","","","","","","","","","","","","","","[""stims/mus_c5_sub1.jpg"",""stims/mus_c5_sub2.jpg"",""stims/mus_c5_sub3.jpg""]","beppo","[""stims/mus_c5_bas3.jpg"",""stims/sea_c6_sup3.jpg"",""stims/mus_c5_sup3.jpg"",""stims/fru_c4_sub4.jpg"",""stims/sea_c6_bas3.jpg"",""stims/sea_c6_sub4.jpg"",""stims/fru_c4_bas3.jpg"",""stims/fru_c4_sup3.jpg"",""stims/mus_c5_sub4.jpg""]","[""NOT a beppo"",""NOT a beppo"",""NOT a beppo"",""NOT a beppo"",""NOT a beppo"",""NOT a beppo"",""NOT a beppo"",""NOT a beppo"",""beppo""]","[""stims/fru_c4_sub5.jpg"",""stims/mus_c5_bas3.jpg"",""stims/fru_c4_sup6.jpg"",""stims/mus_c5_sup3.jpg"",""stims/fru_c4_sup4.jpg"",""stims/sea_c6_bas3.jpg"",""stims/sea_c6_sub4.jpg"",""stims/sea_c6_sup6.jpg"",""stims/sea_c6_sup5.jpg"",""stims/fru_c4_sub4.jpg"",""stims/mus_c5_sup5.jpg"",""stims/fru_c4_bas4.jpg"",""stims/sea_c6_sub5.jpg"",""stims/sea_c6_bas4.jpg"",""stims/mus_c5_sub5.jpg"",""stims/mus_c5_sup4.jpg"",""stims/fru_c4_sup3.jpg"",""stims/sea_c6_sup3.jpg"",""stims/mus_c5_sub4.jpg"",""stims/fru_c4_sup5.jpg"",""stims/sea_c6_sup4.jpg"",""stims/mus_c5_bas4.jpg"",""stims/fru_c4_bas3.jpg"",""stims/mus_c5_sup6.jpg""]","narrow","music","narrow","NOT a beppo","stims/mus_c5_sup3.jpg","NOT a beppo","","[""stims/mus_c5_bas3.jpg"",""stims/mus_c5_sub4.jpg"",""stims/mus_c5_sub5.jpg"",""stims/mus_c5_bas4.jpg""]","[""1"",""18"",""14"",""21""]","[1293.3999999761581,2325.0999999046326,6001.299999952316,7291.199999928474]","[""select"",""select"",""select"",""select""]","[""stims/mus_c5_bas3.jpg"",""stims/mus_c5_sub4.jpg"",""stims/mus_c5_sub5.jpg"",""stims/mus_c5_bas4.jpg""]","12877","",""
"survey-html-form","43","178238","0.0-43.0","TsuWwJvCatActhNhqdYMKsE","p111231","","","","","","","","","","","","","","","5191.300000071526","","{""word_meaning"":""brass instrument""}","[""stims/mus_c5_sub1.jpg"",""stims/mus_c5_sub2.jpg"",""stims/mus_c5_sub3.jpg""]","beppo","[""stims/mus_c5_bas3.jpg"",""stims/sea_c6_sup3.jpg"",""stims/mus_c5_sup3.jpg"",""stims/fru_c4_sub4.jpg"",""stims/sea_c6_bas3.jpg"",""stims/sea_c6_sub4.jpg"",""stims/fru_c4_bas3.jpg"",""stims/fru_c4_sup3.jpg"",""stims/mus_c5_sub4.jpg""]","[""NOT a beppo"",""NOT a beppo"",""NOT a beppo"",""NOT a beppo"",""NOT a beppo"",""NOT a beppo"",""NOT a beppo"",""NOT a beppo"",""beppo""]","[""stims/fru_c4_sub5.jpg"",""stims/mus_c5_bas3.jpg"",""stims/fru_c4_sup6.jpg"",""stims/mus_c5_sup3.jpg"",""stims/fru_c4_sup4.jpg"",""stims/sea_c6_bas3.jpg"",""stims/sea_c6_sub4.jpg"",""stims/sea_c6_sup6.jpg"",""stims/sea_c6_sup5.jpg"",""stims/fru_c4_sub4.jpg"",""stims/mus_c5_sup5.jpg"",""stims/fru_c4_bas4.jpg"",""stims/sea_c6_sub5.jpg"",""stims/sea_c6_bas4.jpg"",""stims/mus_c5_sub5.jpg"",""stims/mus_c5_sup4.jpg"",""stims/fru_c4_sup3.jpg"",""stims/sea_c6_sup3.jpg"",""stims/mus_c5_sub4.jpg"",""stims/fru_c4_sup5.jpg"",""stims/sea_c6_sup4.jpg"",""stims/mus_c5_bas4.jpg"",""stims/fru_c4_bas3.jpg"",""stims/mus_c5_sup6.jpg""]","narrow","music","narrow","NOT a beppo","","","","","","","","","","",""
"instructions","44","179375","0.0-44.0","TsuWwJvCatActhNhqdYMKsE","p111231","","","","","","","","","","","","","","","1136.5","","","","","","","","","","","","","","","","","","","","","[{""page_index"":0,""viewing_time"":1135.8999999761581}]",""
"survey-text","45","181447","0.0-45.0-0.0","TsuWwJvCatActhNhqdYMKsE","p111231","","","","","","","","","","","","","","","2067.7999999523163","","{""age"":""20""}","","","","","","","","","","","","","","","","","","","",""
"survey-text","46","184325","0.0-45.0-1.0","TsuWwJvCatActhNhqdYMKsE","p111231","","","","","","","","","","","","","","","2875.3000000715256","","{""gender"":""F""}","","","","","","","","","","","","","","","","","","","",""
"survey-text","47","186192","0.0-45.0-2.0","TsuWwJvCatActhNhqdYMKsE","p111231","","","","","","","","","","","","","","","1864.5","","{""country"":""USA""}","","","","","","","","","","","","","","","","","","","",""
"survey-text","48","191818","0.0-45.0-3.0","TsuWwJvCatActhNhqdYMKsE","p111231","","","","","","","","","","","","","","","5621.899999976158","","{""language"":""English"",""other_languages"":""n/a""}","","","","","","","","","","","","","","","","","","","",""
"survey-multi-select","49","193865","0.0-46.0","TsuWwJvCatActhNhqdYMKsE","p111231","","","","","","","","","","","","","","","2044.1000000238419","","{""race"":[""White""]}","","","","","","","","","","","","","","","","","","","","[0]"
"survey-multi-choice","50","195738","0.0-47.0","TsuWwJvCatActhNhqdYMKsE","p111231","","","","","","","","","","","","","","","1869.6000000238419","","{""education"":""Some college/ university""}","","","","","","","","","","","","","","","","","","","","[0]"
"survey-text","51","211866","0.0-48.0","TsuWwJvCatActhNhqdYMKsE","p111231","","","","","","","","","","","","","","","16125.399999976158","","{""strategy"":""see earlier response!"",""choice_strategy"":""^"",""comments"":"":)""}","","","","","","","","","","","","","","","","","","","",""
