trial_type,trial_index,time_elapsed,internal_node_id,code,subject,hitId,assignmentId,success,timeout,failed_images,failed_audio,failed_video,view_history,rt,init_locations,moves,final_locations,stim_category,response,question_order,file_name,n
pavlovia,0,5,0.0-0.0,KOCLJyWCatActImpoWLPNSglc,p580115,076d4ae9-1d81-4eff-8850-8afaec0d02bb,6fe21e6e-50f8-4bd0-81f7-3ac19dcb06a6,NA,NA,NA,NA,NA,NA,NA,NA,NA,NA,NA,NA,NA,/Users/martincz/GitHub/cat-act/data/free-sort/raw/catact-free-sort_PARTICIPANT_SESSION_2023-09-27_10h16.23.855.csv,19
preload,1,15421,0.0-1.0,KOCLJyWCatActImpoWLPNSglc,p580115,076d4ae9-1d81-4eff-8850-8afaec0d02bb,6fe21e6e-50f8-4bd0-81f7-3ac19dcb06a6,FALSE,TRUE,[],[],[],NA,NA,NA,NA,NA,NA,NA,NA,/Users/martincz/GitHub/cat-act/data/free-sort/raw/catact-free-sort_PARTICIPANT_SESSION_2023-09-27_10h16.23.855.csv,19
fullscreen,2,31401,0.0-2.0,KOCLJyWCatActImpoWLPNSglc,p580115,076d4ae9-1d81-4eff-8850-8afaec0d02bb,6fe21e6e-50f8-4bd0-81f7-3ac19dcb06a6,TRUE,NA,NA,NA,NA,NA,NA,NA,NA,NA,NA,NA,NA,/Users/martincz/GitHub/cat-act/data/free-sort/raw/catact-free-sort_PARTICIPANT_SESSION_2023-09-27_10h16.23.855.csv,19
instructions,3,47768,0.0-3.0,KOCLJyWCatActImpoWLPNSglc,p580115,076d4ae9-1d81-4eff-8850-8afaec0d02bb,6fe21e6e-50f8-4bd0-81f7-3ac19dcb06a6,NA,NA,NA,NA,NA,"[{""page_index"":0,""viewing_time"":1332.7000000476837},{""page_index"":1,""viewing_time"":1472.5999999046326},{""page_index"":2,""viewing_time"":1108.5999999046326},{""page_index"":3,""viewing_time"":796.4000000953674},{""page_index"":2,""viewing_time"":1804.7000000476837},{""page_index"":1,""viewing_time"":4765},{""page_index"":0,""viewing_time"":966},{""page_index"":1,""viewing_time"":3050},{""page_index"":2,""viewing_time"":394.39999985694885},{""page_index"":3,""viewing_time"":675.5}]",16366.200000047684,NA,NA,NA,NA,NA,NA,/Users/martincz/GitHub/cat-act/data/free-sort/raw/catact-free-sort_PARTICIPANT_SESSION_2023-09-27_10h16.23.855.csv,19
free-sort,4,79888,0.0-4.0,KOCLJyWCatActImpoWLPNSglc,p580115,076d4ae9-1d81-4eff-8850-8afaec0d02bb,6fe21e6e-50f8-4bd0-81f7-3ac19dcb06a6,NA,NA,NA,NA,NA,NA,32118.5,"[{""src"":""images/house_3.jpg"",""x"":877.0666666666667,""y"":0},{""src"":""images/house_1.jpg"",""x"":-177.0666666666667,""y"":600},{""src"":""images/cottage.jpg"",""x"":877.0666666666667,""y"":600},{""src"":""images/house_2.jpg"",""x"":-177.0666666666667,""y"":0}]","[{""src"":""images/house_2.jpg"",""x"":204,""y"":146},{""src"":""images/house_3.jpg"",""x"":410,""y"":173},{""src"":""images/house_1.jpg"",""x"":249,""y"":401},{""src"":""images/house_3.jpg"",""x"":316,""y"":132},{""src"":""images/house_2.jpg"",""x"":142,""y"":102},{""src"":""images/house_3.jpg"",""x"":198,""y"":87},{""src"":""images/house_1.jpg"",""x"":164,""y"":190},{""src"":""images/house_3.jpg"",""x"":233,""y"":111},{""src"":""images/cottage.jpg"",""x"":592,""y"":418}]","[{""src"":""images/house_3.jpg"",""x"":233,""y"":111},{""src"":""images/house_1.jpg"",""x"":164,""y"":190},{""src"":""images/cottage.jpg"",""x"":592,""y"":418},{""src"":""images/house_2.jpg"",""x"":142,""y"":102}]",practice_1,NA,NA,/Users/martincz/GitHub/cat-act/data/free-sort/raw/catact-free-sort_PARTICIPANT_SESSION_2023-09-27_10h16.23.855.csv,19
free-sort,5,89685,0.0-5.0,KOCLJyWCatActImpoWLPNSglc,p580115,076d4ae9-1d81-4eff-8850-8afaec0d02bb,6fe21e6e-50f8-4bd0-81f7-3ac19dcb06a6,NA,NA,NA,NA,NA,NA,9795.899999856949,"[{""src"":""images/screwdriver_1.jpg"",""x"":877.0666666666667,""y"":0},{""src"":""images/hammer_2.jpg"",""x"":-177.0666666666667,""y"":600},{""src"":""images/screwdriver_2.jpg"",""x"":877.0666666666667,""y"":300},{""src"":""images/microphone.jpg"",""x"":-177.0666666666667,""y"":300},{""src"":""images/hammer_1.jpg"",""x"":877.0666666666667,""y"":600}]","[{""src"":""images/screwdriver_1.jpg"",""x"":609,""y"":135},{""src"":""images/screwdriver_2.jpg"",""x"":639,""y"":189},{""src"":""images/hammer_1.jpg"",""x"":494,""y"":559},{""src"":""images/microphone.jpg"",""x"":64,""y"":200},{""src"":""images/hammer_1.jpg"",""x"":631,""y"":449},{""src"":""images/hammer_2.jpg"",""x"":588,""y"":494}]","[{""src"":""images/screwdriver_1.jpg"",""x"":609,""y"":135},{""src"":""images/hammer_2.jpg"",""x"":588,""y"":494},{""src"":""images/screwdriver_2.jpg"",""x"":639,""y"":189},{""src"":""images/microphone.jpg"",""x"":64,""y"":200},{""src"":""images/hammer_1.jpg"",""x"":631,""y"":449}]",practice_2,NA,NA,/Users/martincz/GitHub/cat-act/data/free-sort/raw/catact-free-sort_PARTICIPANT_SESSION_2023-09-27_10h16.23.855.csv,19
free-sort,6,112026,0.0-6.0,KOCLJyWCatActImpoWLPNSglc,p580115,076d4ae9-1d81-4eff-8850-8afaec0d02bb,6fe21e6e-50f8-4bd0-81f7-3ac19dcb06a6,NA,NA,NA,NA,NA,NA,22340.5,"[{""src"":""stims_veg/sub5.jpg"",""x"":830.4000000000001,""y"":0},{""src"":""stims_veg/sub3.jpg"",""x"":-130.40000000000003,""y"":600},{""src"":""stims_veg/sub1.jpg"",""x"":830.4000000000001,""y"":200},{""src"":""stims_veg/sub4.jpg"",""x"":-130.40000000000003,""y"":400},{""src"":""stims_veg/bas1.jpg"",""x"":830.4000000000001,""y"":400},{""src"":""stims_veg/bas3.jpg"",""x"":-130.40000000000003,""y"":200},{""src"":""stims_veg/sub2.jpg"",""x"":830.4000000000001,""y"":600},{""src"":""stims_veg/sup1.jpg"",""x"":-130.40000000000003,""y"":0},{""src"":""stims_veg/bas4.jpg"",""x"":970.4000000000001,""y"":0},{""src"":""stims_veg/sup2.jpg"",""x"":-270.40000000000003,""y"":600},{""src"":""stims_veg/sup5.jpg"",""x"":970.4000000000001,""y"":200},{""src"":""stims_veg/sup6.jpg"",""x"":-270.40000000000003,""y"":400},{""src"":""stims_veg/sup4.jpg"",""x"":970.4000000000001,""y"":400},{""src"":""stims_veg/bas2.jpg"",""x"":-270.40000000000003,""y"":200},{""src"":""stims_veg/sup3.jpg"",""x"":970.4000000000001,""y"":600}]","[{""src"":""stims_veg/sup1.jpg"",""x"":215,""y"":58},{""src"":""stims_veg/sup4.jpg"",""x"":276,""y"":52},{""src"":""stims_veg/sub4.jpg"",""x"":73,""y"":442},{""src"":""stims_veg/bas3.jpg"",""x"":88,""y"":370},{""src"":""stims_veg/bas2.jpg"",""x"":24,""y"":413},{""src"":""stims_veg/sub3.jpg"",""x"":89,""y"":470},{""src"":""stims_veg/sub1.jpg"",""x"":136,""y"":461},{""src"":""stims_veg/sub2.jpg"",""x"":163,""y"":480},{""src"":""stims_veg/bas1.jpg"",""x"":146,""y"":433},{""src"":""stims_veg/sub5.jpg"",""x"":125,""y"":414},{""src"":""stims_veg/bas4.jpg"",""x"":151,""y"":450},{""src"":""stims_veg/sup2.jpg"",""x"":31,""y"":150},{""src"":""stims_veg/sup4.jpg"",""x"":554,""y"":25},{""src"":""stims_veg/sup1.jpg"",""x"":451,""y"":12},{""src"":""stims_veg/sup2.jpg"",""x"":98,""y"":100},{""src"":""stims_veg/sup6.jpg"",""x"":526,""y"":545},{""src"":""stims_veg/sup3.jpg"",""x"":592,""y"":516},{""src"":""stims_veg/sup5.jpg"",""x"":675,""y"":400}]","[{""src"":""stims_veg/sub5.jpg"",""x"":125,""y"":414},{""src"":""stims_veg/sub3.jpg"",""x"":89,""y"":470},{""src"":""stims_veg/sub1.jpg"",""x"":136,""y"":461},{""src"":""stims_veg/sub4.jpg"",""x"":73,""y"":442},{""src"":""stims_veg/bas1.jpg"",""x"":146,""y"":433},{""src"":""stims_veg/bas3.jpg"",""x"":88,""y"":370},{""src"":""stims_veg/sub2.jpg"",""x"":163,""y"":480},{""src"":""stims_veg/sup1.jpg"",""x"":451,""y"":12},{""src"":""stims_veg/bas4.jpg"",""x"":151,""y"":450},{""src"":""stims_veg/sup2.jpg"",""x"":98,""y"":100},{""src"":""stims_veg/sup5.jpg"",""x"":675,""y"":400},{""src"":""stims_veg/sup6.jpg"",""x"":526,""y"":545},{""src"":""stims_veg/sup4.jpg"",""x"":554,""y"":25},{""src"":""stims_veg/bas2.jpg"",""x"":24,""y"":413},{""src"":""stims_veg/sup3.jpg"",""x"":592,""y"":516}]",stims_veg,NA,NA,/Users/martincz/GitHub/cat-act/data/free-sort/raw/catact-free-sort_PARTICIPANT_SESSION_2023-09-27_10h16.23.855.csv,19
free-sort,7,135906,0.0-7.0,KOCLJyWCatActImpoWLPNSglc,p580115,076d4ae9-1d81-4eff-8850-8afaec0d02bb,6fe21e6e-50f8-4bd0-81f7-3ac19dcb06a6,NA,NA,NA,NA,NA,NA,23879.400000095367,"[{""src"":""stims_mus/bas1.jpg"",""x"":830.4000000000001,""y"":0},{""src"":""stims_mus/bas3.jpg"",""x"":-130.40000000000003,""y"":600},{""src"":""stims_mus/bas2.jpg"",""x"":830.4000000000001,""y"":200},{""src"":""stims_mus/sup2.jpg"",""x"":-130.40000000000003,""y"":400},{""src"":""stims_mus/sup3.jpg"",""x"":830.4000000000001,""y"":400},{""src"":""stims_mus/sub5.jpg"",""x"":-130.40000000000003,""y"":200},{""src"":""stims_mus/sup1.jpg"",""x"":830.4000000000001,""y"":600},{""src"":""stims_mus/bas4.jpg"",""x"":-130.40000000000003,""y"":0},{""src"":""stims_mus/sub1.jpg"",""x"":970.4000000000001,""y"":0},{""src"":""stims_mus/sup5.jpg"",""x"":-270.40000000000003,""y"":600},{""src"":""stims_mus/sup6.jpg"",""x"":970.4000000000001,""y"":200},{""src"":""stims_mus/sup4.jpg"",""x"":-270.40000000000003,""y"":400},{""src"":""stims_mus/sub3.jpg"",""x"":970.4000000000001,""y"":400},{""src"":""stims_mus/sub4.jpg"",""x"":-270.40000000000003,""y"":200},{""src"":""stims_mus/sub2.jpg"",""x"":970.4000000000001,""y"":600}]","[{""src"":""stims_mus/bas4.jpg"",""x"":104,""y"":78},{""src"":""stims_mus/sub5.jpg"",""x"":99,""y"":143},{""src"":""stims_mus/sub4.jpg"",""x"":32,""y"":187},{""src"":""stims_mus/sub5.jpg"",""x"":83,""y"":195},{""src"":""stims_mus/bas3.jpg"",""x"":19,""y"":294},{""src"":""stims_mus/sup2.jpg"",""x"":316,""y"":592},{""src"":""stims_mus/sup1.jpg"",""x"":692,""y"":341},{""src"":""stims_mus/bas2.jpg"",""x"":14,""y"":359},{""src"":""stims_mus/bas4.jpg"",""x"":157,""y"":37},{""src"":""stims_mus/sup6.jpg"",""x"":708,""y"":280},{""src"":""stims_mus/bas1.jpg"",""x"":39,""y"":310},{""src"":""stims_mus/sub1.jpg"",""x"":109,""y"":281},{""src"":""stims_mus/sup4.jpg"",""x"":513,""y"":46},{""src"":""stims_mus/sup4.jpg"",""x"":512,""y"":36},{""src"":""stims_mus/sup5.jpg"",""x"":562,""y"":51},{""src"":""stims_mus/sub3.jpg"",""x"":118,""y"":248},{""src"":""stims_mus/sub2.jpg"",""x"":93,""y"":298},{""src"":""stims_mus/sup3.jpg"",""x"":375,""y"":546}]","[{""src"":""stims_mus/bas1.jpg"",""x"":39,""y"":310},{""src"":""stims_mus/bas3.jpg"",""x"":19,""y"":294},{""src"":""stims_mus/bas2.jpg"",""x"":14,""y"":359},{""src"":""stims_mus/sup2.jpg"",""x"":316,""y"":592},{""src"":""stims_mus/sup3.jpg"",""x"":375,""y"":546},{""src"":""stims_mus/sub5.jpg"",""x"":83,""y"":195},{""src"":""stims_mus/sup1.jpg"",""x"":692,""y"":341},{""src"":""stims_mus/bas4.jpg"",""x"":157,""y"":37},{""src"":""stims_mus/sub1.jpg"",""x"":109,""y"":281},{""src"":""stims_mus/sup5.jpg"",""x"":562,""y"":51},{""src"":""stims_mus/sup6.jpg"",""x"":708,""y"":280},{""src"":""stims_mus/sup4.jpg"",""x"":512,""y"":36},{""src"":""stims_mus/sub3.jpg"",""x"":118,""y"":248},{""src"":""stims_mus/sub4.jpg"",""x"":32,""y"":187},{""src"":""stims_mus/sub2.jpg"",""x"":93,""y"":298}]",stims_mus,NA,NA,/Users/martincz/GitHub/cat-act/data/free-sort/raw/catact-free-sort_PARTICIPANT_SESSION_2023-09-27_10h16.23.855.csv,19
free-sort,8,166279,0.0-8.0,KOCLJyWCatActImpoWLPNSglc,p580115,076d4ae9-1d81-4eff-8850-8afaec0d02bb,6fe21e6e-50f8-4bd0-81f7-3ac19dcb06a6,NA,NA,NA,NA,NA,NA,30372,"[{""src"":""stims_veh/sub1.jpg"",""x"":830.4000000000001,""y"":0},{""src"":""stims_veh/bas4.jpg"",""x"":-130.40000000000003,""y"":600},{""src"":""stims_veh/sub2.jpg"",""x"":830.4000000000001,""y"":200},{""src"":""stims_veh/sup2.jpg"",""x"":-130.40000000000003,""y"":400},{""src"":""stims_veh/bas2.jpg"",""x"":830.4000000000001,""y"":400},{""src"":""stims_veh/sup3.jpg"",""x"":-130.40000000000003,""y"":200},{""src"":""stims_veh/sup6.jpg"",""x"":830.4000000000001,""y"":600},{""src"":""stims_veh/sup4.jpg"",""x"":-130.40000000000003,""y"":0},{""src"":""stims_veh/sub4.jpg"",""x"":970.4000000000001,""y"":0},{""src"":""stims_veh/sub5.jpg"",""x"":-270.40000000000003,""y"":600},{""src"":""stims_veh/sub3.jpg"",""x"":970.4000000000001,""y"":200},{""src"":""stims_veh/bas1.jpg"",""x"":-270.40000000000003,""y"":400},{""src"":""stims_veh/bas3.jpg"",""x"":970.4000000000001,""y"":400},{""src"":""stims_veh/sup1.jpg"",""x"":-270.40000000000003,""y"":200},{""src"":""stims_veh/sup5.jpg"",""x"":970.4000000000001,""y"":600}]","[{""src"":""stims_veh/sup4.jpg"",""x"":481,""y"":18},{""src"":""stims_veh/sub1.jpg"",""x"":58,""y"":161},{""src"":""stims_veh/sub4.jpg"",""x"":650,""y"":148},{""src"":""stims_veh/sub1.jpg"",""x"":593,""y"":157},{""src"":""stims_veh/sup4.jpg"",""x"":187,""y"":32},{""src"":""stims_veh/sub2.jpg"",""x"":629,""y"":196},{""src"":""stims_veh/sub3.jpg"",""x"":633,""y"":244},{""src"":""stims_veh/bas3.jpg"",""x"":662,""y"":393},{""src"":""stims_veh/bas2.jpg"",""x"":606,""y"":456},{""src"":""stims_veh/sup6.jpg"",""x"":398,""y"":585},{""src"":""stims_veh/bas3.jpg"",""x"":681,""y"":299},{""src"":""stims_veh/bas2.jpg"",""x"":701,""y"":353},{""src"":""stims_veh/sub5.jpg"",""x"":668,""y"":208},{""src"":""stims_veh/bas4.jpg"",""x"":644,""y"":358},{""src"":""stims_veh/bas1.jpg"",""x"":669,""y"":392},{""src"":""stims_veh/sup1.jpg"",""x"":287,""y"":590},{""src"":""stims_veh/sup3.jpg"",""x"":569,""y"":523},{""src"":""stims_veh/sup2.jpg"",""x"":88,""y"":122},{""src"":""stims_veh/sup4.jpg"",""x"":161,""y"":42},{""src"":""stims_veh/sup5.jpg"",""x"":22,""y"":319}]","[{""src"":""stims_veh/sub1.jpg"",""x"":593,""y"":157},{""src"":""stims_veh/bas4.jpg"",""x"":644,""y"":358},{""src"":""stims_veh/sub2.jpg"",""x"":629,""y"":196},{""src"":""stims_veh/sup2.jpg"",""x"":88,""y"":122},{""src"":""stims_veh/bas2.jpg"",""x"":701,""y"":353},{""src"":""stims_veh/sup3.jpg"",""x"":569,""y"":523},{""src"":""stims_veh/sup6.jpg"",""x"":398,""y"":585},{""src"":""stims_veh/sup4.jpg"",""x"":161,""y"":42},{""src"":""stims_veh/sub4.jpg"",""x"":650,""y"":148},{""src"":""stims_veh/sub5.jpg"",""x"":668,""y"":208},{""src"":""stims_veh/sub3.jpg"",""x"":633,""y"":244},{""src"":""stims_veh/bas1.jpg"",""x"":669,""y"":392},{""src"":""stims_veh/bas3.jpg"",""x"":681,""y"":299},{""src"":""stims_veh/sup1.jpg"",""x"":287,""y"":590},{""src"":""stims_veh/sup5.jpg"",""x"":22,""y"":319}]",stims_veh,NA,NA,/Users/martincz/GitHub/cat-act/data/free-sort/raw/catact-free-sort_PARTICIPANT_SESSION_2023-09-27_10h16.23.855.csv,19
free-sort,9,187151,0.0-9.0,KOCLJyWCatActImpoWLPNSglc,p580115,076d4ae9-1d81-4eff-8850-8afaec0d02bb,6fe21e6e-50f8-4bd0-81f7-3ac19dcb06a6,NA,NA,NA,NA,NA,NA,20871,"[{""src"":""stims_fru/sub4.jpg"",""x"":830.4000000000001,""y"":0},{""src"":""stims_fru/sup1.jpg"",""x"":-130.40000000000003,""y"":600},{""src"":""stims_fru/sub5.jpg"",""x"":830.4000000000001,""y"":200},{""src"":""stims_fru/sup5.jpg"",""x"":-130.40000000000003,""y"":400},{""src"":""stims_fru/bas4.jpg"",""x"":830.4000000000001,""y"":400},{""src"":""stims_fru/sup3.jpg"",""x"":-130.40000000000003,""y"":200},{""src"":""stims_fru/bas2.jpg"",""x"":830.4000000000001,""y"":600},{""src"":""stims_fru/sup6.jpg"",""x"":-130.40000000000003,""y"":0},{""src"":""stims_fru/bas1.jpg"",""x"":970.4000000000001,""y"":0},{""src"":""stims_fru/sub3.jpg"",""x"":-270.40000000000003,""y"":600},{""src"":""stims_fru/sub1.jpg"",""x"":970.4000000000001,""y"":200},{""src"":""stims_fru/sup4.jpg"",""x"":-270.40000000000003,""y"":400},{""src"":""stims_fru/bas3.jpg"",""x"":970.4000000000001,""y"":400},{""src"":""stims_fru/sub2.jpg"",""x"":-270.40000000000003,""y"":200},{""src"":""stims_fru/sup2.jpg"",""x"":970.4000000000001,""y"":600}]","[{""src"":""stims_fru/sub2.jpg"",""x"":180,""y"":90},{""src"":""stims_fru/sub4.jpg"",""x"":191,""y"":76},{""src"":""stims_fru/sub5.jpg"",""x"":191,""y"":94},{""src"":""stims_fru/sub1.jpg"",""x"":251,""y"":93},{""src"":""stims_fru/bas1.jpg"",""x"":334,""y"":37},{""src"":""stims_fru/bas3.jpg"",""x"":382,""y"":45},{""src"":""stims_fru/bas4.jpg"",""x"":426,""y"":35},{""src"":""stims_fru/bas2.jpg"",""x"":450,""y"":100},{""src"":""stims_fru/sup2.jpg"",""x"":569,""y"":183},{""src"":""stims_fru/sup2.jpg"",""x"":646,""y"":200},{""src"":""stims_fru/sup3.jpg"",""x"":676,""y"":370},{""src"":""stims_fru/sup5.jpg"",""x"":141,""y"":531},{""src"":""stims_fru/sup1.jpg"",""x"":209,""y"":555},{""src"":""stims_fru/sup4.jpg"",""x"":277,""y"":534},{""src"":""stims_fru/sup6.jpg"",""x"":-136,""y"":23},{""src"":""stims_fru/sup6.jpg"",""x"":155,""y"":454},{""src"":""stims_fru/sub3.jpg"",""x"":237,""y"":71},{""src"":""stims_fru/sup3.jpg"",""x"":596,""y"":474},{""src"":""stims_fru/sup2.jpg"",""x"":668,""y"":288}]","[{""src"":""stims_fru/sub4.jpg"",""x"":191,""y"":76},{""src"":""stims_fru/sup1.jpg"",""x"":209,""y"":555},{""src"":""stims_fru/sub5.jpg"",""x"":191,""y"":94},{""src"":""stims_fru/sup5.jpg"",""x"":141,""y"":531},{""src"":""stims_fru/bas4.jpg"",""x"":426,""y"":35},{""src"":""stims_fru/sup3.jpg"",""x"":596,""y"":474},{""src"":""stims_fru/bas2.jpg"",""x"":450,""y"":100},{""src"":""stims_fru/sup6.jpg"",""x"":155,""y"":454},{""src"":""stims_fru/bas1.jpg"",""x"":334,""y"":37},{""src"":""stims_fru/sub3.jpg"",""x"":237,""y"":71},{""src"":""stims_fru/sub1.jpg"",""x"":251,""y"":93},{""src"":""stims_fru/sup4.jpg"",""x"":277,""y"":534},{""src"":""stims_fru/bas3.jpg"",""x"":382,""y"":45},{""src"":""stims_fru/sub2.jpg"",""x"":180,""y"":90},{""src"":""stims_fru/sup2.jpg"",""x"":668,""y"":288}]",stims_fru,NA,NA,/Users/martincz/GitHub/cat-act/data/free-sort/raw/catact-free-sort_PARTICIPANT_SESSION_2023-09-27_10h16.23.855.csv,19
free-sort,10,211547,0.0-10.0,KOCLJyWCatActImpoWLPNSglc,p580115,076d4ae9-1d81-4eff-8850-8afaec0d02bb,6fe21e6e-50f8-4bd0-81f7-3ac19dcb06a6,NA,NA,NA,NA,NA,NA,24395.799999952316,"[{""src"":""stims_boa/sub4.jpg"",""x"":830.4000000000001,""y"":0},{""src"":""stims_boa/bas2.jpg"",""x"":-130.40000000000003,""y"":600},{""src"":""stims_boa/sup5.jpg"",""x"":830.4000000000001,""y"":150},{""src"":""stims_boa/sub5.jpg"",""x"":-130.40000000000003,""y"":450},{""src"":""stims_boa/sub1.jpg"",""x"":830.4000000000001,""y"":300},{""src"":""stims_boa/sup3.jpg"",""x"":-130.40000000000003,""y"":300},{""src"":""stims_boa/sup6.jpg"",""x"":830.4000000000001,""y"":450},{""src"":""stims_boa/bas3.jpg"",""x"":-130.40000000000003,""y"":150},{""src"":""stims_boa/sup4.jpg"",""x"":830.4000000000001,""y"":600},{""src"":""stims_boa/sub2.jpg"",""x"":-130.40000000000003,""y"":0},{""src"":""stims_boa/sup8.jpg"",""x"":970.4000000000001,""y"":0},{""src"":""stims_boa/sub3.jpg"",""x"":-270.40000000000003,""y"":600},{""src"":""stims_boa/sup7.jpg"",""x"":970.4000000000001,""y"":150},{""src"":""stims_boa/bas1.jpg"",""x"":-270.40000000000003,""y"":450},{""src"":""stims_boa/sup1.jpg"",""x"":970.4000000000001,""y"":300},{""src"":""stims_boa/bas4.jpg"",""x"":-270.40000000000003,""y"":300},{""src"":""stims_boa/sup2.jpg"",""x"":970.4000000000001,""y"":450}]","[{""src"":""stims_boa/sub2.jpg"",""x"":286,""y"":16},{""src"":""stims_boa/sub4.jpg"",""x"":269,""y"":43},{""src"":""stims_boa/sub1.jpg"",""x"":311,""y"":17},{""src"":""stims_boa/sup4.jpg"",""x"":374,""y"":48},{""src"":""stims_boa/sub3.jpg"",""x"":267,""y"":46},{""src"":""stims_boa/sub5.jpg"",""x"":280,""y"":86},{""src"":""stims_boa/sup3.jpg"",""x"":688,""y"":269},{""src"":""stims_boa/sup1.jpg"",""x"":640,""y"":274},{""src"":""stims_boa/sup5.jpg"",""x"":589,""y"":228},{""src"":""stims_boa/sup8.jpg"",""x"":629,""y"":484},{""src"":""stims_boa/sup7.jpg"",""x"":417,""y"":578},{""src"":""stims_boa/sup6.jpg"",""x"":332,""y"":582},{""src"":""stims_boa/bas2.jpg"",""x"":40,""y"":378},{""src"":""stims_boa/bas1.jpg"",""x"":65,""y"":264},{""src"":""stims_boa/bas4.jpg"",""x"":38,""y"":317},{""src"":""stims_boa/bas3.jpg"",""x"":73,""y"":241},{""src"":""stims_boa/sup2.jpg"",""x"":77,""y"":100}]","[{""src"":""stims_boa/sub4.jpg"",""x"":269,""y"":43},{""src"":""stims_boa/bas2.jpg"",""x"":40,""y"":378},{""src"":""stims_boa/sup5.jpg"",""x"":589,""y"":228},{""src"":""stims_boa/sub5.jpg"",""x"":280,""y"":86},{""src"":""stims_boa/sub1.jpg"",""x"":311,""y"":17},{""src"":""stims_boa/sup3.jpg"",""x"":688,""y"":269},{""src"":""stims_boa/sup6.jpg"",""x"":332,""y"":582},{""src"":""stims_boa/bas3.jpg"",""x"":73,""y"":241},{""src"":""stims_boa/sup4.jpg"",""x"":374,""y"":48},{""src"":""stims_boa/sub2.jpg"",""x"":286,""y"":16},{""src"":""stims_boa/sup8.jpg"",""x"":629,""y"":484},{""src"":""stims_boa/sub3.jpg"",""x"":267,""y"":46},{""src"":""stims_boa/sup7.jpg"",""x"":417,""y"":578},{""src"":""stims_boa/bas1.jpg"",""x"":65,""y"":264},{""src"":""stims_boa/sup1.jpg"",""x"":640,""y"":274},{""src"":""stims_boa/bas4.jpg"",""x"":38,""y"":317},{""src"":""stims_boa/sup2.jpg"",""x"":77,""y"":100}]",stims_boa,NA,NA,/Users/martincz/GitHub/cat-act/data/free-sort/raw/catact-free-sort_PARTICIPANT_SESSION_2023-09-27_10h16.23.855.csv,19
free-sort,11,241201,0.0-11.0,KOCLJyWCatActImpoWLPNSglc,p580115,076d4ae9-1d81-4eff-8850-8afaec0d02bb,6fe21e6e-50f8-4bd0-81f7-3ac19dcb06a6,NA,NA,NA,NA,NA,NA,29652.10000014305,"[{""src"":""stims_sea/sup4.jpg"",""x"":830.4000000000001,""y"":0},{""src"":""stims_sea/sup6.jpg"",""x"":-130.40000000000003,""y"":600},{""src"":""stims_sea/sub2.jpg"",""x"":830.4000000000001,""y"":200},{""src"":""stims_sea/bas3.jpg"",""x"":-130.40000000000003,""y"":400},{""src"":""stims_sea/bas4.jpg"",""x"":830.4000000000001,""y"":400},{""src"":""stims_sea/sub3.jpg"",""x"":-130.40000000000003,""y"":200},{""src"":""stims_sea/sub5.jpg"",""x"":830.4000000000001,""y"":600},{""src"":""stims_sea/sup1.jpg"",""x"":-130.40000000000003,""y"":0},{""src"":""stims_sea/sup3.jpg"",""x"":970.4000000000001,""y"":0},{""src"":""stims_sea/bas1.jpg"",""x"":-270.40000000000003,""y"":600},{""src"":""stims_sea/sup5.jpg"",""x"":970.4000000000001,""y"":200},{""src"":""stims_sea/bas2.jpg"",""x"":-270.40000000000003,""y"":400},{""src"":""stims_sea/sub1.jpg"",""x"":970.4000000000001,""y"":400},{""src"":""stims_sea/sup2.jpg"",""x"":-270.40000000000003,""y"":200},{""src"":""stims_sea/sub4.jpg"",""x"":970.4000000000001,""y"":600}]","[{""src"":""stims_sea/sup1.jpg"",""x"":218,""y"":50},{""src"":""stims_sea/sup6.jpg"",""x"":456,""y"":569},{""src"":""stims_sea/sup5.jpg"",""x"":568,""y"":534},{""src"":""stims_sea/sup4.jpg"",""x"":301,""y"":574},{""src"":""stims_sea/sup2.jpg"",""x"":172,""y"":549},{""src"":""stims_sea/sup2.jpg"",""x"":216,""y"":577},{""src"":""stims_sea/sup1.jpg"",""x"":384,""y"":2},{""src"":""stims_sea/sup3.jpg"",""x"":580,""y"":50},{""src"":""stims_sea/sub3.jpg"",""x"":161,""y"":66},{""src"":""stims_sea/sub2.jpg"",""x"":173,""y"":71},{""src"":""stims_sea/sub1.jpg"",""x"":221,""y"":100},{""src"":""stims_sea/sub4.jpg"",""x"":209,""y"":102},{""src"":""stims_sea/sub5.jpg"",""x"":814,""y"":580},{""src"":""stims_sea/sub5.jpg"",""x"":200,""y"":74},{""src"":""stims_sea/bas4.jpg"",""x"":61,""y"":145},{""src"":""stims_sea/bas3.jpg"",""x"":34,""y"":213},{""src"":""stims_sea/bas2.jpg"",""x"":-12,""y"":178},{""src"":""stims_sea/bas2.jpg"",""x"":33,""y"":154},{""src"":""stims_sea/bas3.jpg"",""x"":217,""y"":-11},{""src"":""stims_sea/bas1.jpg"",""x"":51,""y"":226},{""src"":""stims_sea/bas3.jpg"",""x"":226,""y"":15}]","[{""src"":""stims_sea/sup4.jpg"",""x"":301,""y"":574},{""src"":""stims_sea/sup6.jpg"",""x"":456,""y"":569},{""src"":""stims_sea/sub2.jpg"",""x"":173,""y"":71},{""src"":""stims_sea/bas3.jpg"",""x"":226,""y"":15},{""src"":""stims_sea/bas4.jpg"",""x"":61,""y"":145},{""src"":""stims_sea/sub3.jpg"",""x"":161,""y"":66},{""src"":""stims_sea/sub5.jpg"",""x"":200,""y"":74},{""src"":""stims_sea/sup1.jpg"",""x"":384,""y"":2},{""src"":""stims_sea/sup3.jpg"",""x"":580,""y"":50},{""src"":""stims_sea/bas1.jpg"",""x"":51,""y"":226},{""src"":""stims_sea/sup5.jpg"",""x"":568,""y"":534},{""src"":""stims_sea/bas2.jpg"",""x"":33,""y"":154},{""src"":""stims_sea/sub1.jpg"",""x"":221,""y"":100},{""src"":""stims_sea/sup2.jpg"",""x"":216,""y"":577},{""src"":""stims_sea/sub4.jpg"",""x"":209,""y"":102}]",stims_sea,NA,NA,/Users/martincz/GitHub/cat-act/data/free-sort/raw/catact-free-sort_PARTICIPANT_SESSION_2023-09-27_10h16.23.855.csv,19
survey-text,12,243441,0.0-12.0-0.0,KOCLJyWCatActImpoWLPNSglc,p580115,076d4ae9-1d81-4eff-8850-8afaec0d02bb,6fe21e6e-50f8-4bd0-81f7-3ac19dcb06a6,NA,NA,NA,NA,NA,NA,2236.599999904633,NA,NA,NA,NA,"{""age"":""28""}",NA,/Users/martincz/GitHub/cat-act/data/free-sort/raw/catact-free-sort_PARTICIPANT_SESSION_2023-09-27_10h16.23.855.csv,19
survey-text,13,246834,0.0-12.0-1.0,KOCLJyWCatActImpoWLPNSglc,p580115,076d4ae9-1d81-4eff-8850-8afaec0d02bb,6fe21e6e-50f8-4bd0-81f7-3ac19dcb06a6,NA,NA,NA,NA,NA,NA,3391.7999999523163,NA,NA,NA,NA,"{""gender"":""male""}",NA,/Users/martincz/GitHub/cat-act/data/free-sort/raw/catact-free-sort_PARTICIPANT_SESSION_2023-09-27_10h16.23.855.csv,19
survey-text,14,250670,0.0-12.0-2.0,KOCLJyWCatActImpoWLPNSglc,p580115,076d4ae9-1d81-4eff-8850-8afaec0d02bb,6fe21e6e-50f8-4bd0-81f7-3ac19dcb06a6,NA,NA,NA,NA,NA,NA,3834.699999809265,NA,NA,NA,NA,"{""country"":""United States""}",NA,/Users/martincz/GitHub/cat-act/data/free-sort/raw/catact-free-sort_PARTICIPANT_SESSION_2023-09-27_10h16.23.855.csv,19
survey-text,15,253659,0.0-12.0-3.0,KOCLJyWCatActImpoWLPNSglc,p580115,076d4ae9-1d81-4eff-8850-8afaec0d02bb,6fe21e6e-50f8-4bd0-81f7-3ac19dcb06a6,NA,NA,NA,NA,NA,NA,2987.5,NA,NA,NA,NA,"{""language"":""English"",""other_languages"":""""}",NA,/Users/martincz/GitHub/cat-act/data/free-sort/raw/catact-free-sort_PARTICIPANT_SESSION_2023-09-27_10h16.23.855.csv,19
survey-multi-select,16,256318,0.0-13.0,KOCLJyWCatActImpoWLPNSglc,p580115,076d4ae9-1d81-4eff-8850-8afaec0d02bb,6fe21e6e-50f8-4bd0-81f7-3ac19dcb06a6,NA,NA,NA,NA,NA,NA,2657.599999904633,NA,NA,NA,NA,"{""race"":[""White""]}",[0],/Users/martincz/GitHub/cat-act/data/free-sort/raw/catact-free-sort_PARTICIPANT_SESSION_2023-09-27_10h16.23.855.csv,19
survey-multi-choice,17,258224,0.0-14.0,KOCLJyWCatActImpoWLPNSglc,p580115,076d4ae9-1d81-4eff-8850-8afaec0d02bb,6fe21e6e-50f8-4bd0-81f7-3ac19dcb06a6,NA,NA,NA,NA,NA,NA,1905.5999999046328,NA,NA,NA,NA,"{""education"":""Bachelor's degree""}",[0],/Users/martincz/GitHub/cat-act/data/free-sort/raw/catact-free-sort_PARTICIPANT_SESSION_2023-09-27_10h16.23.855.csv,19
survey-text,18,283120,0.0-15.0,KOCLJyWCatActImpoWLPNSglc,p580115,076d4ae9-1d81-4eff-8850-8afaec0d02bb,6fe21e6e-50f8-4bd0-81f7-3ac19dcb06a6,NA,NA,NA,NA,NA,NA,24893.10000014305,NA,NA,NA,NA,"{""issues"":""couldn't see images or circle in full screen but could when I wasn't in full screen"",""comments"":""""}",NA,/Users/martincz/GitHub/cat-act/data/free-sort/raw/catact-free-sort_PARTICIPANT_SESSION_2023-09-27_10h16.23.855.csv,19
pavlovia,0,38,0.0-0.0,uZmcYIWCatActImfgIJkIMFni,p35751,076d4ae9-1d81-4eff-8850-8afaec0d02bb,19eb6f98-68b3-412d-878b-d9e174aef7b1,NA,NA,NA,NA,NA,NA,NA,NA,NA,NA,NA,NA,NA,/Users/martincz/GitHub/cat-act/data/free-sort/raw/catact-free-sort_PARTICIPANT_SESSION_2023-09-27_10h31.26.46.csv,19
preload,1,2024,0.0-1.0,uZmcYIWCatActImfgIJkIMFni,p35751,076d4ae9-1d81-4eff-8850-8afaec0d02bb,19eb6f98-68b3-412d-878b-d9e174aef7b1,TRUE,FALSE,[],[],[],NA,NA,NA,NA,NA,NA,NA,NA,/Users/martincz/GitHub/cat-act/data/free-sort/raw/catact-free-sort_PARTICIPANT_SESSION_2023-09-27_10h31.26.46.csv,19
fullscreen,2,4341,0.0-2.0,uZmcYIWCatActImfgIJkIMFni,p35751,076d4ae9-1d81-4eff-8850-8afaec0d02bb,19eb6f98-68b3-412d-878b-d9e174aef7b1,TRUE,NA,NA,NA,NA,NA,NA,NA,NA,NA,NA,NA,NA,/Users/martincz/GitHub/cat-act/data/free-sort/raw/catact-free-sort_PARTICIPANT_SESSION_2023-09-27_10h31.26.46.csv,19
instructions,3,41261,0.0-3.0,uZmcYIWCatActImfgIJkIMFni,p35751,076d4ae9-1d81-4eff-8850-8afaec0d02bb,19eb6f98-68b3-412d-878b-d9e174aef7b1,NA,NA,NA,NA,NA,"[{""page_index"":0,""viewing_time"":20012.40000000596},{""page_index"":1,""viewing_time"":9395.899999976158},{""page_index"":2,""viewing_time"":6132},{""page_index"":3,""viewing_time"":1378}]",36918.59999999404,NA,NA,NA,NA,NA,NA,/Users/martincz/GitHub/cat-act/data/free-sort/raw/catact-free-sort_PARTICIPANT_SESSION_2023-09-27_10h31.26.46.csv,19
free-sort,4,48037,0.0-4.0,uZmcYIWCatActImfgIJkIMFni,p35751,076d4ae9-1d81-4eff-8850-8afaec0d02bb,19eb6f98-68b3-412d-878b-d9e174aef7b1,NA,NA,NA,NA,NA,NA,6772.9000000059605,"[{""src"":""images/house_2.jpg"",""x"":877.0666666666667,""y"":0},{""src"":""images/house_1.jpg"",""x"":-177.0666666666667,""y"":600},{""src"":""images/cottage.jpg"",""x"":877.0666666666667,""y"":600},{""src"":""images/house_3.jpg"",""x"":-177.0666666666667,""y"":0}]","[{""src"":""images/house_3.jpg"",""x"":180,""y"":137},{""src"":""images/house_1.jpg"",""x"":127,""y"":249},{""src"":""images/house_2.jpg"",""x"":263,""y"":238},{""src"":""images/cottage.jpg"",""x"":566,""y"":394}]","[{""src"":""images/house_2.jpg"",""x"":263,""y"":238},{""src"":""images/house_1.jpg"",""x"":127,""y"":249},{""src"":""images/cottage.jpg"",""x"":566,""y"":394},{""src"":""images/house_3.jpg"",""x"":180,""y"":137}]",practice_1,NA,NA,/Users/martincz/GitHub/cat-act/data/free-sort/raw/catact-free-sort_PARTICIPANT_SESSION_2023-09-27_10h31.26.46.csv,19
free-sort,5,57572,0.0-5.0,uZmcYIWCatActImfgIJkIMFni,p35751,076d4ae9-1d81-4eff-8850-8afaec0d02bb,19eb6f98-68b3-412d-878b-d9e174aef7b1,NA,NA,NA,NA,NA,NA,9534,"[{""src"":""images/screwdriver_1.jpg"",""x"":877.0666666666667,""y"":0},{""src"":""images/microphone.jpg"",""x"":-177.0666666666667,""y"":600},{""src"":""images/screwdriver_2.jpg"",""x"":877.0666666666667,""y"":300},{""src"":""images/hammer_2.jpg"",""x"":-177.0666666666667,""y"":300},{""src"":""images/hammer_1.jpg"",""x"":877.0666666666667,""y"":600}]","[{""src"":""images/hammer_2.jpg"",""x"":307,""y"":67},{""src"":""images/hammer_1.jpg"",""x"":430,""y"":110},{""src"":""images/microphone.jpg"",""x"":66,""y"":349},{""src"":""images/screwdriver_1.jpg"",""x"":542,""y"":356},{""src"":""images/screwdriver_2.jpg"",""x"":497,""y"":487}]","[{""src"":""images/screwdriver_1.jpg"",""x"":542,""y"":356},{""src"":""images/microphone.jpg"",""x"":66,""y"":349},{""src"":""images/screwdriver_2.jpg"",""x"":497,""y"":487},{""src"":""images/hammer_2.jpg"",""x"":307,""y"":67},{""src"":""images/hammer_1.jpg"",""x"":430,""y"":110}]",practice_2,NA,NA,/Users/martincz/GitHub/cat-act/data/free-sort/raw/catact-free-sort_PARTICIPANT_SESSION_2023-09-27_10h31.26.46.csv,19
free-sort,6,118036,0.0-6.0,uZmcYIWCatActImfgIJkIMFni,p35751,076d4ae9-1d81-4eff-8850-8afaec0d02bb,19eb6f98-68b3-412d-878b-d9e174aef7b1,NA,NA,NA,NA,NA,NA,60460.89999997616,"[{""src"":""stims_fru/sub5.jpg"",""x"":830.4000000000001,""y"":0},{""src"":""stims_fru/bas3.jpg"",""x"":-130.40000000000003,""y"":600},{""src"":""stims_fru/bas4.jpg"",""x"":830.4000000000001,""y"":200},{""src"":""stims_fru/sub1.jpg"",""x"":-130.40000000000003,""y"":400},{""src"":""stims_fru/sub4.jpg"",""x"":830.4000000000001,""y"":400},{""src"":""stims_fru/sup1.jpg"",""x"":-130.40000000000003,""y"":200},{""src"":""stims_fru/sup3.jpg"",""x"":830.4000000000001,""y"":600},{""src"":""stims_fru/sub2.jpg"",""x"":-130.40000000000003,""y"":0},{""src"":""stims_fru/sup4.jpg"",""x"":970.4000000000001,""y"":0},{""src"":""stims_fru/sup5.jpg"",""x"":-270.40000000000003,""y"":600},{""src"":""stims_fru/bas2.jpg"",""x"":970.4000000000001,""y"":200},{""src"":""stims_fru/sub3.jpg"",""x"":-270.40000000000003,""y"":400},{""src"":""stims_fru/sup2.jpg"",""x"":970.4000000000001,""y"":400},{""src"":""stims_fru/bas1.jpg"",""x"":-270.40000000000003,""y"":200},{""src"":""stims_fru/sup6.jpg"",""x"":970.4000000000001,""y"":600}]","[{""src"":""stims_fru/sub2.jpg"",""x"":387,""y"":73},{""src"":""stims_fru/sub5.jpg"",""x"":524,""y"":100},{""src"":""stims_fru/sup4.jpg"",""x"":118,""y"":179},{""src"":""stims_fru/bas4.jpg"",""x"":461,""y"":529},{""src"":""stims_fru/sub4.jpg"",""x"":581,""y"":222},{""src"":""stims_fru/bas2.jpg"",""x"":577,""y"":430},{""src"":""stims_fru/sup2.jpg"",""x"":246,""y"":423},{""src"":""stims_fru/sub3.jpg"",""x"":264,""y"":60},{""src"":""stims_fru/sub1.jpg"",""x"":456,""y"":225},{""src"":""stims_fru/sup2.jpg"",""x"":332,""y"":531},{""src"":""stims_fru/bas1.jpg"",""x"":304,""y"":216},{""src"":""stims_fru/bas3.jpg"",""x"":294,""y"":347},{""src"":""stims_fru/sup3.jpg"",""x"":211,""y"":500},{""src"":""stims_fru/sup4.jpg"",""x"":147,""y"":114},{""src"":""stims_fru/bas1.jpg"",""x"":173,""y"":352},{""src"":""stims_fru/sup6.jpg"",""x"":317,""y"":207},{""src"":""stims_fru/sup5.jpg"",""x"":54,""y"":359},{""src"":""stims_fru/sup1.jpg"",""x"":95,""y"":236},{""src"":""stims_fru/bas3.jpg"",""x"":300,""y"":331},{""src"":""stims_fru/bas1.jpg"",""x"":413,""y"":381},{""src"":""stims_fru/sub4.jpg"",""x"":648,""y"":204},{""src"":""stims_fru/sub1.jpg"",""x"":490,""y"":214},{""src"":""stims_fru/sub4.jpg"",""x"":644,""y"":177}]","[{""src"":""stims_fru/sub5.jpg"",""x"":524,""y"":100},{""src"":""stims_fru/bas3.jpg"",""x"":300,""y"":331},{""src"":""stims_fru/bas4.jpg"",""x"":461,""y"":529},{""src"":""stims_fru/sub1.jpg"",""x"":490,""y"":214},{""src"":""stims_fru/sub4.jpg"",""x"":644,""y"":177},{""src"":""stims_fru/sup1.jpg"",""x"":95,""y"":236},{""src"":""stims_fru/sup3.jpg"",""x"":211,""y"":500},{""src"":""stims_fru/sub2.jpg"",""x"":387,""y"":73},{""src"":""stims_fru/sup4.jpg"",""x"":147,""y"":114},{""src"":""stims_fru/sup5.jpg"",""x"":54,""y"":359},{""src"":""stims_fru/bas2.jpg"",""x"":577,""y"":430},{""src"":""stims_fru/sub3.jpg"",""x"":264,""y"":60},{""src"":""stims_fru/sup2.jpg"",""x"":332,""y"":531},{""src"":""stims_fru/bas1.jpg"",""x"":413,""y"":381},{""src"":""stims_fru/sup6.jpg"",""x"":317,""y"":207}]",stims_fru,NA,NA,/Users/martincz/GitHub/cat-act/data/free-sort/raw/catact-free-sort_PARTICIPANT_SESSION_2023-09-27_10h31.26.46.csv,19
free-sort,7,199280,0.0-7.0,uZmcYIWCatActImfgIJkIMFni,p35751,076d4ae9-1d81-4eff-8850-8afaec0d02bb,19eb6f98-68b3-412d-878b-d9e174aef7b1,NA,NA,NA,NA,NA,NA,81239.69999998808,"[{""src"":""stims_ani/bas1.jpg"",""x"":830.4000000000001,""y"":0},{""src"":""stims_ani/sup4.jpg"",""x"":-130.40000000000003,""y"":600},{""src"":""stims_ani/sup1.jpg"",""x"":830.4000000000001,""y"":200},{""src"":""stims_ani/sub4.jpg"",""x"":-130.40000000000003,""y"":400},{""src"":""stims_ani/sup3.jpg"",""x"":830.4000000000001,""y"":400},{""src"":""stims_ani/sup6.jpg"",""x"":-130.40000000000003,""y"":200},{""src"":""stims_ani/sup2.jpg"",""x"":830.4000000000001,""y"":600},{""src"":""stims_ani/sub5.jpg"",""x"":-130.40000000000003,""y"":0},{""src"":""stims_ani/bas4.jpg"",""x"":970.4000000000001,""y"":0},{""src"":""stims_ani/sup5.jpg"",""x"":-270.40000000000003,""y"":600},{""src"":""stims_ani/sub2.jpg"",""x"":970.4000000000001,""y"":200},{""src"":""stims_ani/bas3.jpg"",""x"":-270.40000000000003,""y"":400},{""src"":""stims_ani/sub3.jpg"",""x"":970.4000000000001,""y"":400},{""src"":""stims_ani/sub1.jpg"",""x"":-270.40000000000003,""y"":200},{""src"":""stims_ani/bas2.jpg"",""x"":970.4000000000001,""y"":600}]","[{""src"":""stims_ani/sub5.jpg"",""x"":335,""y"":44},{""src"":""stims_ani/bas1.jpg"",""x"":347,""y"":546},{""src"":""stims_ani/bas4.jpg"",""x"":507,""y"":477},{""src"":""stims_ani/sup1.jpg"",""x"":120,""y"":362},{""src"":""stims_ani/sub1.jpg"",""x"":464,""y"":89},{""src"":""stims_ani/sub4.jpg"",""x"":349,""y"":165},{""src"":""stims_ani/sub2.jpg"",""x"":206,""y"":96},{""src"":""stims_ani/sub3.jpg"",""x"":586,""y"":168},{""src"":""stims_ani/sup3.jpg"",""x"":624,""y"":326},{""src"":""stims_ani/sup2.jpg"",""x"":141,""y"":475},{""src"":""stims_ani/sup1.jpg"",""x"":355,""y"":409},{""src"":""stims_ani/sup1.jpg"",""x"":445,""y"":376},{""src"":""stims_ani/sup1.jpg"",""x"":451,""y"":355},{""src"":""stims_ani/bas2.jpg"",""x"":327,""y"":415},{""src"":""stims_ani/bas1.jpg"",""x"":372,""y"":537},{""src"":""stims_ani/sup4.jpg"",""x"":162,""y"":326},{""src"":""stims_ani/bas2.jpg"",""x"":217,""y"":221},{""src"":""stims_ani/bas4.jpg"",""x"":332,""y"":286},{""src"":""stims_ani/bas4.jpg"",""x"":310,""y"":343},{""src"":""stims_ani/sup1.jpg"",""x"":461,""y"":301},{""src"":""stims_ani/bas1.jpg"",""x"":438,""y"":445},{""src"":""stims_ani/sup4.jpg"",""x"":309,""y"":477},{""src"":""stims_ani/sup3.jpg"",""x"":570,""y"":415},{""src"":""stims_ani/bas1.jpg"",""x"":452,""y"":487},{""src"":""stims_ani/sup1.jpg"",""x"":440,""y"":286},{""src"":""stims_ani/bas1.jpg"",""x"":493,""y"":403},{""src"":""stims_ani/sup3.jpg"",""x"":438,""y"":520},{""src"":""stims_ani/sup4.jpg"",""x"":328,""y"":459},{""src"":""stims_ani/bas4.jpg"",""x"":283,""y"":344},{""src"":""stims_ani/sup2.jpg"",""x"":71,""y"":328},{""src"":""stims_ani/bas3.jpg"",""x"":145,""y"":346},{""src"":""stims_ani/sup2.jpg"",""x"":176,""y"":488},{""src"":""stims_ani/bas3.jpg"",""x"":97,""y"":322},{""src"":""stims_ani/sup5.jpg"",""x"":650,""y"":292},{""src"":""stims_ani/sup6.jpg"",""x"":57,""y"":180}]","[{""src"":""stims_ani/bas1.jpg"",""x"":493,""y"":403},{""src"":""stims_ani/sup4.jpg"",""x"":328,""y"":459},{""src"":""stims_ani/sup1.jpg"",""x"":440,""y"":286},{""src"":""stims_ani/sub4.jpg"",""x"":349,""y"":165},{""src"":""stims_ani/sup3.jpg"",""x"":438,""y"":520},{""src"":""stims_ani/sup6.jpg"",""x"":57,""y"":180},{""src"":""stims_ani/sup2.jpg"",""x"":176,""y"":488},{""src"":""stims_ani/sub5.jpg"",""x"":335,""y"":44},{""src"":""stims_ani/bas4.jpg"",""x"":283,""y"":344},{""src"":""stims_ani/sup5.jpg"",""x"":650,""y"":292},{""src"":""stims_ani/sub2.jpg"",""x"":206,""y"":96},{""src"":""stims_ani/bas3.jpg"",""x"":97,""y"":322},{""src"":""stims_ani/sub3.jpg"",""x"":586,""y"":168},{""src"":""stims_ani/sub1.jpg"",""x"":464,""y"":89},{""src"":""stims_ani/bas2.jpg"",""x"":217,""y"":221}]",stims_ani,NA,NA,/Users/martincz/GitHub/cat-act/data/free-sort/raw/catact-free-sort_PARTICIPANT_SESSION_2023-09-27_10h31.26.46.csv,19
free-sort,8,281242,0.0-8.0,uZmcYIWCatActImfgIJkIMFni,p35751,076d4ae9-1d81-4eff-8850-8afaec0d02bb,19eb6f98-68b3-412d-878b-d9e174aef7b1,NA,NA,NA,NA,NA,NA,81957.10000002384,"[{""src"":""stims_boa/bas4.jpg"",""x"":830.4000000000001,""y"":0},{""src"":""stims_boa/sub3.jpg"",""x"":-130.40000000000003,""y"":600},{""src"":""stims_boa/sub2.jpg"",""x"":830.4000000000001,""y"":150},{""src"":""stims_boa/sup5.jpg"",""x"":-130.40000000000003,""y"":450},{""src"":""stims_boa/sup4.jpg"",""x"":830.4000000000001,""y"":300},{""src"":""stims_boa/sub4.jpg"",""x"":-130.40000000000003,""y"":300},{""src"":""stims_boa/sup1.jpg"",""x"":830.4000000000001,""y"":450},{""src"":""stims_boa/sub1.jpg"",""x"":-130.40000000000003,""y"":150},{""src"":""stims_boa/sup2.jpg"",""x"":830.4000000000001,""y"":600},{""src"":""stims_boa/bas3.jpg"",""x"":-130.40000000000003,""y"":0},{""src"":""stims_boa/sup7.jpg"",""x"":970.4000000000001,""y"":0},{""src"":""stims_boa/sub5.jpg"",""x"":-270.40000000000003,""y"":600},{""src"":""stims_boa/bas2.jpg"",""x"":970.4000000000001,""y"":150},{""src"":""stims_boa/bas1.jpg"",""x"":-270.40000000000003,""y"":450},{""src"":""stims_boa/sup8.jpg"",""x"":970.4000000000001,""y"":300},{""src"":""stims_boa/sup3.jpg"",""x"":-270.40000000000003,""y"":300},{""src"":""stims_boa/sup6.jpg"",""x"":970.4000000000001,""y"":450}]","[{""src"":""stims_boa/bas3.jpg"",""x"":335,""y"":45},{""src"":""stims_boa/sup7.jpg"",""x"":620,""y"":278},{""src"":""stims_boa/sup6.jpg"",""x"":598,""y"":408},{""src"":""stims_boa/bas4.jpg"",""x"":453,""y"":109},{""src"":""stims_boa/bas2.jpg"",""x"":206,""y"":111},{""src"":""stims_boa/bas1.jpg"",""x"":268,""y"":234},{""src"":""stims_boa/bas4.jpg"",""x"":469,""y"":68},{""src"":""stims_boa/bas1.jpg"",""x"":400,""y"":195},{""src"":""stims_boa/bas2.jpg"",""x"":216,""y"":134},{""src"":""stims_boa/bas4.jpg"",""x"":454,""y"":80},{""src"":""stims_boa/sup8.jpg"",""x"":460,""y"":533},{""src"":""stims_boa/sup3.jpg"",""x"":165,""y"":473},{""src"":""stims_boa/sup5.jpg"",""x"":277,""y"":540},{""src"":""stims_boa/sup1.jpg"",""x"":290,""y"":406},{""src"":""stims_boa/sup2.jpg"",""x"":282,""y"":250},{""src"":""stims_boa/sup7.jpg"",""x"":65,""y"":235},{""src"":""stims_boa/sup6.jpg"",""x"":96,""y"":130},{""src"":""stims_boa/sup7.jpg"",""x"":46,""y"":327},{""src"":""stims_boa/sup6.jpg"",""x"":96,""y"":205},{""src"":""stims_boa/sub1.jpg"",""x"":585,""y"":159},{""src"":""stims_boa/sub4.jpg"",""x"":638,""y"":277},{""src"":""stims_boa/sub5.jpg"",""x"":522,""y"":298},{""src"":""stims_boa/sub2.jpg"",""x"":621,""y"":409},{""src"":""stims_boa/sup4.jpg"",""x"":403,""y"":358},{""src"":""stims_boa/sub3.jpg"",""x"":509,""y"":421}]","[{""src"":""stims_boa/bas4.jpg"",""x"":454,""y"":80},{""src"":""stims_boa/sub3.jpg"",""x"":509,""y"":421},{""src"":""stims_boa/sub2.jpg"",""x"":621,""y"":409},{""src"":""stims_boa/sup5.jpg"",""x"":277,""y"":540},{""src"":""stims_boa/sup4.jpg"",""x"":403,""y"":358},{""src"":""stims_boa/sub4.jpg"",""x"":638,""y"":277},{""src"":""stims_boa/sup1.jpg"",""x"":290,""y"":406},{""src"":""stims_boa/sub1.jpg"",""x"":585,""y"":159},{""src"":""stims_boa/sup2.jpg"",""x"":282,""y"":250},{""src"":""stims_boa/bas3.jpg"",""x"":335,""y"":45},{""src"":""stims_boa/sup7.jpg"",""x"":46,""y"":327},{""src"":""stims_boa/sub5.jpg"",""x"":522,""y"":298},{""src"":""stims_boa/bas2.jpg"",""x"":216,""y"":134},{""src"":""stims_boa/bas1.jpg"",""x"":400,""y"":195},{""src"":""stims_boa/sup8.jpg"",""x"":460,""y"":533},{""src"":""stims_boa/sup3.jpg"",""x"":165,""y"":473},{""src"":""stims_boa/sup6.jpg"",""x"":96,""y"":205}]",stims_boa,NA,NA,/Users/martincz/GitHub/cat-act/data/free-sort/raw/catact-free-sort_PARTICIPANT_SESSION_2023-09-27_10h31.26.46.csv,19
free-sort,9,333204,0.0-9.0,uZmcYIWCatActImfgIJkIMFni,p35751,076d4ae9-1d81-4eff-8850-8afaec0d02bb,19eb6f98-68b3-412d-878b-d9e174aef7b1,NA,NA,NA,NA,NA,NA,51959.19999998808,"[{""src"":""stims_sea/sup1.jpg"",""x"":830.4000000000001,""y"":0},{""src"":""stims_sea/sub5.jpg"",""x"":-130.40000000000003,""y"":600},{""src"":""stims_sea/sub3.jpg"",""x"":830.4000000000001,""y"":200},{""src"":""stims_sea/bas1.jpg"",""x"":-130.40000000000003,""y"":400},{""src"":""stims_sea/sub1.jpg"",""x"":830.4000000000001,""y"":400},{""src"":""stims_sea/bas4.jpg"",""x"":-130.40000000000003,""y"":200},{""src"":""stims_sea/sup5.jpg"",""x"":830.4000000000001,""y"":600},{""src"":""stims_sea/sup4.jpg"",""x"":-130.40000000000003,""y"":0},{""src"":""stims_sea/sub2.jpg"",""x"":970.4000000000001,""y"":0},{""src"":""stims_sea/bas2.jpg"",""x"":-270.40000000000003,""y"":600},{""src"":""stims_sea/sup2.jpg"",""x"":970.4000000000001,""y"":200},{""src"":""stims_sea/sup3.jpg"",""x"":-270.40000000000003,""y"":400},{""src"":""stims_sea/sup6.jpg"",""x"":970.4000000000001,""y"":400},{""src"":""stims_sea/sub4.jpg"",""x"":-270.40000000000003,""y"":200},{""src"":""stims_sea/bas3.jpg"",""x"":970.4000000000001,""y"":600}]","[{""src"":""stims_sea/sub4.jpg"",""x"":442,""y"":60},{""src"":""stims_sea/sub2.jpg"",""x"":571,""y"":125},{""src"":""stims_sea/sub3.jpg"",""x"":323,""y"":31},{""src"":""stims_sea/sub1.jpg"",""x"":384,""y"":171},{""src"":""stims_sea/sub5.jpg"",""x"":528,""y"":238},{""src"":""stims_sea/bas4.jpg"",""x"":660,""y"":278},{""src"":""stims_sea/bas1.jpg"",""x"":251,""y"":159},{""src"":""stims_sea/bas3.jpg"",""x"":185,""y"":59},{""src"":""stims_sea/bas2.jpg"",""x"":121,""y"":172},{""src"":""stims_sea/sup2.jpg"",""x"":400,""y"":558},{""src"":""stims_sea/sup4.jpg"",""x"":280,""y"":500},{""src"":""stims_sea/sup5.jpg"",""x"":430,""y"":433},{""src"":""stims_sea/sup6.jpg"",""x"":625,""y"":416},{""src"":""stims_sea/sup1.jpg"",""x"":97,""y"":360},{""src"":""stims_sea/sup3.jpg"",""x"":402,""y"":303}]","[{""src"":""stims_sea/sup1.jpg"",""x"":97,""y"":360},{""src"":""stims_sea/sub5.jpg"",""x"":528,""y"":238},{""src"":""stims_sea/sub3.jpg"",""x"":323,""y"":31},{""src"":""stims_sea/bas1.jpg"",""x"":251,""y"":159},{""src"":""stims_sea/sub1.jpg"",""x"":384,""y"":171},{""src"":""stims_sea/bas4.jpg"",""x"":660,""y"":278},{""src"":""stims_sea/sup5.jpg"",""x"":430,""y"":433},{""src"":""stims_sea/sup4.jpg"",""x"":280,""y"":500},{""src"":""stims_sea/sub2.jpg"",""x"":571,""y"":125},{""src"":""stims_sea/bas2.jpg"",""x"":121,""y"":172},{""src"":""stims_sea/sup2.jpg"",""x"":400,""y"":558},{""src"":""stims_sea/sup3.jpg"",""x"":402,""y"":303},{""src"":""stims_sea/sup6.jpg"",""x"":625,""y"":416},{""src"":""stims_sea/sub4.jpg"",""x"":442,""y"":60},{""src"":""stims_sea/bas3.jpg"",""x"":185,""y"":59}]",stims_sea,NA,NA,/Users/martincz/GitHub/cat-act/data/free-sort/raw/catact-free-sort_PARTICIPANT_SESSION_2023-09-27_10h31.26.46.csv,19
free-sort,10,396935,0.0-10.0,uZmcYIWCatActImfgIJkIMFni,p35751,076d4ae9-1d81-4eff-8850-8afaec0d02bb,19eb6f98-68b3-412d-878b-d9e174aef7b1,NA,NA,NA,NA,NA,NA,63723.5,"[{""src"":""stims_pla/sub5.jpg"",""x"":830.4000000000001,""y"":0},{""src"":""stims_pla/bas2.jpg"",""x"":-130.40000000000003,""y"":600},{""src"":""stims_pla/sub4.jpg"",""x"":830.4000000000001,""y"":150},{""src"":""stims_pla/sup4.jpg"",""x"":-130.40000000000003,""y"":450},{""src"":""stims_pla/sup6.jpg"",""x"":830.4000000000001,""y"":300},{""src"":""stims_pla/sup5.jpg"",""x"":-130.40000000000003,""y"":300},{""src"":""stims_pla/sup1.jpg"",""x"":830.4000000000001,""y"":450},{""src"":""stims_pla/bas1.jpg"",""x"":-130.40000000000003,""y"":150},{""src"":""stims_pla/bas4.jpg"",""x"":830.4000000000001,""y"":600},{""src"":""stims_pla/sup3.jpg"",""x"":-130.40000000000003,""y"":0},{""src"":""stims_pla/sup8.jpg"",""x"":970.4000000000001,""y"":0},{""src"":""stims_pla/sup2.jpg"",""x"":-270.40000000000003,""y"":600},{""src"":""stims_pla/sub1.jpg"",""x"":970.4000000000001,""y"":150},{""src"":""stims_pla/bas3.jpg"",""x"":-270.40000000000003,""y"":450},{""src"":""stims_pla/sub2.jpg"",""x"":970.4000000000001,""y"":300},{""src"":""stims_pla/sub3.jpg"",""x"":-270.40000000000003,""y"":300},{""src"":""stims_pla/sup7.jpg"",""x"":970.4000000000001,""y"":450}]","[{""src"":""stims_pla/sub3.jpg"",""x"":351,""y"":37},{""src"":""stims_pla/sub5.jpg"",""x"":472,""y"":87},{""src"":""stims_pla/sub4.jpg"",""x"":226,""y"":62},{""src"":""stims_pla/sub1.jpg"",""x"":287,""y"":176},{""src"":""stims_pla/sub2.jpg"",""x"":412,""y"":211},{""src"":""stims_pla/sup8.jpg"",""x"":364,""y"":564},{""src"":""stims_pla/sup6.jpg"",""x"":477,""y"":527},{""src"":""stims_pla/sup1.jpg"",""x"":246,""y"":531},{""src"":""stims_pla/sup7.jpg"",""x"":599,""y"":456},{""src"":""stims_pla/sup3.jpg"",""x"":397,""y"":407},{""src"":""stims_pla/bas1.jpg"",""x"":609,""y"":141},{""src"":""stims_pla/bas3.jpg"",""x"":671,""y"":253},{""src"":""stims_pla/bas4.jpg"",""x"":547,""y"":265},{""src"":""stims_pla/bas2.jpg"",""x"":641,""y"":335},{""src"":""stims_pla/bas2.jpg"",""x"":645,""y"":351},{""src"":""stims_pla/sup5.jpg"",""x"":125,""y"":462},{""src"":""stims_pla/sub2.jpg"",""x"":107,""y"":138},{""src"":""stims_pla/sup4.jpg"",""x"":164,""y"":253},{""src"":""stims_pla/sup2.jpg"",""x"":433,""y"":242}]","[{""src"":""stims_pla/sub5.jpg"",""x"":472,""y"":87},{""src"":""stims_pla/bas2.jpg"",""x"":645,""y"":351},{""src"":""stims_pla/sub4.jpg"",""x"":226,""y"":62},{""src"":""stims_pla/sup4.jpg"",""x"":164,""y"":253},{""src"":""stims_pla/sup6.jpg"",""x"":477,""y"":527},{""src"":""stims_pla/sup5.jpg"",""x"":125,""y"":462},{""src"":""stims_pla/sup1.jpg"",""x"":246,""y"":531},{""src"":""stims_pla/bas1.jpg"",""x"":609,""y"":141},{""src"":""stims_pla/bas4.jpg"",""x"":547,""y"":265},{""src"":""stims_pla/sup3.jpg"",""x"":397,""y"":407},{""src"":""stims_pla/sup8.jpg"",""x"":364,""y"":564},{""src"":""stims_pla/sup2.jpg"",""x"":433,""y"":242},{""src"":""stims_pla/sub1.jpg"",""x"":287,""y"":176},{""src"":""stims_pla/bas3.jpg"",""x"":671,""y"":253},{""src"":""stims_pla/sub2.jpg"",""x"":107,""y"":138},{""src"":""stims_pla/sub3.jpg"",""x"":351,""y"":37},{""src"":""stims_pla/sup7.jpg"",""x"":599,""y"":456}]",stims_pla,NA,NA,/Users/martincz/GitHub/cat-act/data/free-sort/raw/catact-free-sort_PARTICIPANT_SESSION_2023-09-27_10h31.26.46.csv,19
free-sort,11,455500,0.0-11.0,uZmcYIWCatActImfgIJkIMFni,p35751,076d4ae9-1d81-4eff-8850-8afaec0d02bb,19eb6f98-68b3-412d-878b-d9e174aef7b1,NA,NA,NA,NA,NA,NA,58548.19999998808,"[{""src"":""stims_air/bas2.jpg"",""x"":830.4000000000001,""y"":0},{""src"":""stims_air/sup1.jpg"",""x"":-130.40000000000003,""y"":600},{""src"":""stims_air/sup3.jpg"",""x"":830.4000000000001,""y"":200},{""src"":""stims_air/sup6.jpg"",""x"":-130.40000000000003,""y"":400},{""src"":""stims_air/sup2.jpg"",""x"":830.4000000000001,""y"":400},{""src"":""stims_air/bas4.jpg"",""x"":-130.40000000000003,""y"":200},{""src"":""stims_air/sub1.jpg"",""x"":830.4000000000001,""y"":600},{""src"":""stims_air/sub2.jpg"",""x"":-130.40000000000003,""y"":0},{""src"":""stims_air/bas1.jpg"",""x"":970.4000000000001,""y"":0},{""src"":""stims_air/sup5.jpg"",""x"":-270.40000000000003,""y"":600},{""src"":""stims_air/sub4.jpg"",""x"":970.4000000000001,""y"":200},{""src"":""stims_air/sup4.jpg"",""x"":-270.40000000000003,""y"":400},{""src"":""stims_air/sub3.jpg"",""x"":970.4000000000001,""y"":400},{""src"":""stims_air/sub5.jpg"",""x"":-270.40000000000003,""y"":200},{""src"":""stims_air/bas3.jpg"",""x"":970.4000000000001,""y"":600}]","[{""src"":""stims_air/sub5.jpg"",""x"":183,""y"":121},{""src"":""stims_air/sub2.jpg"",""x"":66,""y"":176},{""src"":""stims_air/bas4.jpg"",""x"":176,""y"":239},{""src"":""stims_air/bas2.jpg"",""x"":307,""y"":45},{""src"":""stims_air/sub4.jpg"",""x"":312,""y"":176},{""src"":""stims_air/sub3.jpg"",""x"":33,""y"":292},{""src"":""stims_air/bas2.jpg"",""x"":587,""y"":151},{""src"":""stims_air/bas4.jpg"",""x"":494,""y"":53},{""src"":""stims_air/sub4.jpg"",""x"":285,""y"":89},{""src"":""stims_air/sub1.jpg"",""x"":168,""y"":295},{""src"":""stims_air/sup4.jpg"",""x"":465,""y"":173},{""src"":""stims_air/bas1.jpg"",""x"":623,""y"":332},{""src"":""stims_air/bas3.jpg"",""x"":572,""y"":448},{""src"":""stims_air/sup5.jpg"",""x"":95,""y"":444},{""src"":""stims_air/sup1.jpg"",""x"":213,""y"":485},{""src"":""stims_air/sup6.jpg"",""x"":286,""y"":364},{""src"":""stims_air/sup3.jpg"",""x"":406,""y"":557},{""src"":""stims_air/sup2.jpg"",""x"":451,""y"":431}]","[{""src"":""stims_air/bas2.jpg"",""x"":587,""y"":151},{""src"":""stims_air/sup1.jpg"",""x"":213,""y"":485},{""src"":""stims_air/sup3.jpg"",""x"":406,""y"":557},{""src"":""stims_air/sup6.jpg"",""x"":286,""y"":364},{""src"":""stims_air/sup2.jpg"",""x"":451,""y"":431},{""src"":""stims_air/bas4.jpg"",""x"":494,""y"":53},{""src"":""stims_air/sub1.jpg"",""x"":168,""y"":295},{""src"":""stims_air/sub2.jpg"",""x"":66,""y"":176},{""src"":""stims_air/bas1.jpg"",""x"":623,""y"":332},{""src"":""stims_air/sup5.jpg"",""x"":95,""y"":444},{""src"":""stims_air/sub4.jpg"",""x"":285,""y"":89},{""src"":""stims_air/sup4.jpg"",""x"":465,""y"":173},{""src"":""stims_air/sub3.jpg"",""x"":33,""y"":292},{""src"":""stims_air/sub5.jpg"",""x"":183,""y"":121},{""src"":""stims_air/bas3.jpg"",""x"":572,""y"":448}]",stims_air,NA,NA,/Users/martincz/GitHub/cat-act/data/free-sort/raw/catact-free-sort_PARTICIPANT_SESSION_2023-09-27_10h31.26.46.csv,19
survey-text,12,459215,0.0-12.0-0.0,uZmcYIWCatActImfgIJkIMFni,p35751,076d4ae9-1d81-4eff-8850-8afaec0d02bb,19eb6f98-68b3-412d-878b-d9e174aef7b1,NA,NA,NA,NA,NA,NA,3709.400000005961,NA,NA,NA,NA,"{""age"":""39""}",NA,/Users/martincz/GitHub/cat-act/data/free-sort/raw/catact-free-sort_PARTICIPANT_SESSION_2023-09-27_10h31.26.46.csv,19
survey-text,13,463457,0.0-12.0-1.0,uZmcYIWCatActImfgIJkIMFni,p35751,076d4ae9-1d81-4eff-8850-8afaec0d02bb,19eb6f98-68b3-412d-878b-d9e174aef7b1,NA,NA,NA,NA,NA,NA,4239.699999988079,NA,NA,NA,NA,"{""gender"":""female""}",NA,/Users/martincz/GitHub/cat-act/data/free-sort/raw/catact-free-sort_PARTICIPANT_SESSION_2023-09-27_10h31.26.46.csv,19
survey-text,14,471915,0.0-12.0-2.0,uZmcYIWCatActImfgIJkIMFni,p35751,076d4ae9-1d81-4eff-8850-8afaec0d02bb,19eb6f98-68b3-412d-878b-d9e174aef7b1,NA,NA,NA,NA,NA,NA,8456.199999988079,NA,NA,NA,NA,"{""country"":""United States""}",NA,/Users/martincz/GitHub/cat-act/data/free-sort/raw/catact-free-sort_PARTICIPANT_SESSION_2023-09-27_10h31.26.46.csv,19
survey-text,15,475982,0.0-12.0-3.0,uZmcYIWCatActImfgIJkIMFni,p35751,076d4ae9-1d81-4eff-8850-8afaec0d02bb,19eb6f98-68b3-412d-878b-d9e174aef7b1,NA,NA,NA,NA,NA,NA,4063.800000011921,NA,NA,NA,NA,"{""language"":""English"",""other_languages"":""""}",NA,/Users/martincz/GitHub/cat-act/data/free-sort/raw/catact-free-sort_PARTICIPANT_SESSION_2023-09-27_10h31.26.46.csv,19
survey-multi-select,16,478094,0.0-13.0,uZmcYIWCatActImfgIJkIMFni,p35751,076d4ae9-1d81-4eff-8850-8afaec0d02bb,19eb6f98-68b3-412d-878b-d9e174aef7b1,NA,NA,NA,NA,NA,NA,2108.9000000059605,NA,NA,NA,NA,"{""race"":[""White""]}",[0],/Users/martincz/GitHub/cat-act/data/free-sort/raw/catact-free-sort_PARTICIPANT_SESSION_2023-09-27_10h31.26.46.csv,19
survey-multi-choice,17,480168,0.0-14.0,uZmcYIWCatActImfgIJkIMFni,p35751,076d4ae9-1d81-4eff-8850-8afaec0d02bb,19eb6f98-68b3-412d-878b-d9e174aef7b1,NA,NA,NA,NA,NA,NA,2072,NA,NA,NA,NA,"{""education"":""Some college/ university""}",[0],/Users/martincz/GitHub/cat-act/data/free-sort/raw/catact-free-sort_PARTICIPANT_SESSION_2023-09-27_10h31.26.46.csv,19
survey-text,18,488588,0.0-15.0,uZmcYIWCatActImfgIJkIMFni,p35751,076d4ae9-1d81-4eff-8850-8afaec0d02bb,19eb6f98-68b3-412d-878b-d9e174aef7b1,NA,NA,NA,NA,NA,NA,8412.699999988079,NA,NA,NA,NA,"{""issues"":""no"",""comments"":""no""}",NA,/Users/martincz/GitHub/cat-act/data/free-sort/raw/catact-free-sort_PARTICIPANT_SESSION_2023-09-27_10h31.26.46.csv,19
pavlovia,0,44,0.0-0.0,myoreXoCatActImGgkUdgAUOt,p372042,076d4ae9-1d81-4eff-8850-8afaec0d02bb,b84d97b9-f1dd-4366-b49d-82d0790674cb,NA,NA,NA,NA,NA,NA,NA,NA,NA,NA,NA,NA,NA,/Users/martincz/GitHub/cat-act/data/free-sort/raw/catact-free-sort_PARTICIPANT_SESSION_2023-09-27_10h50.08.597.csv,19
preload,1,2034,0.0-1.0,myoreXoCatActImGgkUdgAUOt,p372042,076d4ae9-1d81-4eff-8850-8afaec0d02bb,b84d97b9-f1dd-4366-b49d-82d0790674cb,TRUE,FALSE,[],[],[],NA,NA,NA,NA,NA,NA,NA,NA,/Users/martincz/GitHub/cat-act/data/free-sort/raw/catact-free-sort_PARTICIPANT_SESSION_2023-09-27_10h50.08.597.csv,19
fullscreen,2,5563,0.0-2.0,myoreXoCatActImGgkUdgAUOt,p372042,076d4ae9-1d81-4eff-8850-8afaec0d02bb,b84d97b9-f1dd-4366-b49d-82d0790674cb,TRUE,NA,NA,NA,NA,NA,NA,NA,NA,NA,NA,NA,NA,/Users/martincz/GitHub/cat-act/data/free-sort/raw/catact-free-sort_PARTICIPANT_SESSION_2023-09-27_10h50.08.597.csv,19
instructions,3,54754,0.0-3.0,myoreXoCatActImGgkUdgAUOt,p372042,076d4ae9-1d81-4eff-8850-8afaec0d02bb,b84d97b9-f1dd-4366-b49d-82d0790674cb,NA,NA,NA,NA,NA,"[{""page_index"":0,""viewing_time"":10748.100000023842},{""page_index"":1,""viewing_time"":20201.200000047684},{""page_index"":2,""viewing_time"":11683.399999976158},{""page_index"":3,""viewing_time"":6553}]",49186.40000009537,NA,NA,NA,NA,NA,NA,/Users/martincz/GitHub/cat-act/data/free-sort/raw/catact-free-sort_PARTICIPANT_SESSION_2023-09-27_10h50.08.597.csv,19
free-sort,4,69038,0.0-4.0,myoreXoCatActImGgkUdgAUOt,p372042,076d4ae9-1d81-4eff-8850-8afaec0d02bb,b84d97b9-f1dd-4366-b49d-82d0790674cb,NA,NA,NA,NA,NA,NA,14280.700000047684,"[{""src"":""images/cottage.jpg"",""x"":877.0666666666667,""y"":0},{""src"":""images/house_1.jpg"",""x"":-177.0666666666667,""y"":600},{""src"":""images/house_2.jpg"",""x"":877.0666666666667,""y"":600},{""src"":""images/house_3.jpg"",""x"":-177.0666666666667,""y"":0}]","[{""src"":""images/house_3.jpg"",""x"":126,""y"":157},{""src"":""images/house_1.jpg"",""x"":85,""y"":249},{""src"":""images/house_2.jpg"",""x"":215,""y"":294},{""src"":""images/cottage.jpg"",""x"":613,""y"":258}]","[{""src"":""images/cottage.jpg"",""x"":613,""y"":258},{""src"":""images/house_1.jpg"",""x"":85,""y"":249},{""src"":""images/house_2.jpg"",""x"":215,""y"":294},{""src"":""images/house_3.jpg"",""x"":126,""y"":157}]",practice_1,NA,NA,/Users/martincz/GitHub/cat-act/data/free-sort/raw/catact-free-sort_PARTICIPANT_SESSION_2023-09-27_10h50.08.597.csv,19
free-sort,5,85638,0.0-5.0,myoreXoCatActImGgkUdgAUOt,p372042,076d4ae9-1d81-4eff-8850-8afaec0d02bb,b84d97b9-f1dd-4366-b49d-82d0790674cb,NA,NA,NA,NA,NA,NA,16597.199999928474,"[{""src"":""images/screwdriver_1.jpg"",""x"":877.0666666666667,""y"":0},{""src"":""images/hammer_2.jpg"",""x"":-177.0666666666667,""y"":600},{""src"":""images/hammer_1.jpg"",""x"":877.0666666666667,""y"":300},{""src"":""images/screwdriver_2.jpg"",""x"":-177.0666666666667,""y"":300},{""src"":""images/microphone.jpg"",""x"":877.0666666666667,""y"":600}]","[{""src"":""images/screwdriver_1.jpg"",""x"":177,""y"":109},{""src"":""images/screwdriver_2.jpg"",""x"":74,""y"":200},{""src"":""images/hammer_2.jpg"",""x"":285,""y"":556},{""src"":""images/hammer_1.jpg"",""x"":254,""y"":432},{""src"":""images/microphone.jpg"",""x"":649,""y"":309}]","[{""src"":""images/screwdriver_1.jpg"",""x"":177,""y"":109},{""src"":""images/hammer_2.jpg"",""x"":285,""y"":556},{""src"":""images/hammer_1.jpg"",""x"":254,""y"":432},{""src"":""images/screwdriver_2.jpg"",""x"":74,""y"":200},{""src"":""images/microphone.jpg"",""x"":649,""y"":309}]",practice_2,NA,NA,/Users/martincz/GitHub/cat-act/data/free-sort/raw/catact-free-sort_PARTICIPANT_SESSION_2023-09-27_10h50.08.597.csv,19
free-sort,6,154550,0.0-6.0,myoreXoCatActImGgkUdgAUOt,p372042,076d4ae9-1d81-4eff-8850-8afaec0d02bb,b84d97b9-f1dd-4366-b49d-82d0790674cb,NA,NA,NA,NA,NA,NA,68909.29999995232,"[{""src"":""stims_boa/bas2.jpg"",""x"":830.4000000000001,""y"":0},{""src"":""stims_boa/sup1.jpg"",""x"":-130.40000000000003,""y"":600},{""src"":""stims_boa/sub3.jpg"",""x"":830.4000000000001,""y"":150},{""src"":""stims_boa/sub2.jpg"",""x"":-130.40000000000003,""y"":450},{""src"":""stims_boa/sup5.jpg"",""x"":830.4000000000001,""y"":300},{""src"":""stims_boa/bas3.jpg"",""x"":-130.40000000000003,""y"":300},{""src"":""stims_boa/sup7.jpg"",""x"":830.4000000000001,""y"":450},{""src"":""stims_boa/bas1.jpg"",""x"":-130.40000000000003,""y"":150},{""src"":""stims_boa/sub1.jpg"",""x"":830.4000000000001,""y"":600},{""src"":""stims_boa/sup3.jpg"",""x"":-130.40000000000003,""y"":0},{""src"":""stims_boa/sup6.jpg"",""x"":970.4000000000001,""y"":0},{""src"":""stims_boa/sub5.jpg"",""x"":-270.40000000000003,""y"":600},{""src"":""stims_boa/sup2.jpg"",""x"":970.4000000000001,""y"":150},{""src"":""stims_boa/bas4.jpg"",""x"":-270.40000000000003,""y"":450},{""src"":""stims_boa/sup8.jpg"",""x"":970.4000000000001,""y"":300},{""src"":""stims_boa/sub4.jpg"",""x"":-270.40000000000003,""y"":300},{""src"":""stims_boa/sup4.jpg"",""x"":970.4000000000001,""y"":450}]","[{""src"":""stims_boa/bas2.jpg"",""x"":485,""y"":109},{""src"":""stims_boa/sup6.jpg"",""x"":448,""y"":222},{""src"":""stims_boa/sup2.jpg"",""x"":564,""y"":199},{""src"":""stims_boa/sup7.jpg"",""x"":551,""y"":309},{""src"":""stims_boa/sub1.jpg"",""x"":591,""y"":443},{""src"":""stims_boa/sub5.jpg"",""x"":471,""y"":480},{""src"":""stims_boa/sub4.jpg"",""x"":378,""y"":534},{""src"":""stims_boa/sub2.jpg"",""x"":387,""y"":428},{""src"":""stims_boa/bas4.jpg"",""x"":536,""y"":152},{""src"":""stims_boa/bas4.jpg"",""x"":587,""y"":110},{""src"":""stims_boa/bas4.jpg"",""x"":564,""y"":117},{""src"":""stims_boa/bas2.jpg"",""x"":434,""y"":105},{""src"":""stims_boa/bas4.jpg"",""x"":564,""y"":117},{""src"":""stims_boa/bas4.jpg"",""x"":538,""y"":120},{""src"":""stims_boa/sub3.jpg"",""x"":284,""y"":532},{""src"":""stims_boa/sup5.jpg"",""x"":813,""y"":315},{""src"":""stims_boa/sup4.jpg"",""x"":288,""y"":429},{""src"":""stims_boa/bas3.jpg"",""x"":329,""y"":45},{""src"":""stims_boa/bas1.jpg"",""x"":332,""y"":159},{""src"":""stims_boa/sup8.jpg"",""x"":40,""y"":310},{""src"":""stims_boa/sup5.jpg"",""x"":259,""y"":278},{""src"":""stims_boa/bas1.jpg"",""x"":665,""y"":293},{""src"":""stims_boa/sup5.jpg"",""x"":216,""y"":176},{""src"":""stims_boa/sup3.jpg"",""x"":182,""y"":73},{""src"":""stims_boa/sup3.jpg"",""x"":182,""y"":75},{""src"":""stims_boa/sup1.jpg"",""x"":255,""y"":268}]","[{""src"":""stims_boa/bas2.jpg"",""x"":434,""y"":105},{""src"":""stims_boa/sup1.jpg"",""x"":255,""y"":268},{""src"":""stims_boa/sub3.jpg"",""x"":284,""y"":532},{""src"":""stims_boa/sub2.jpg"",""x"":387,""y"":428},{""src"":""stims_boa/sup5.jpg"",""x"":216,""y"":176},{""src"":""stims_boa/bas3.jpg"",""x"":329,""y"":45},{""src"":""stims_boa/sup7.jpg"",""x"":551,""y"":309},{""src"":""stims_boa/bas1.jpg"",""x"":665,""y"":293},{""src"":""stims_boa/sub1.jpg"",""x"":591,""y"":443},{""src"":""stims_boa/sup3.jpg"",""x"":182,""y"":75},{""src"":""stims_boa/sup6.jpg"",""x"":448,""y"":222},{""src"":""stims_boa/sub5.jpg"",""x"":471,""y"":480},{""src"":""stims_boa/sup2.jpg"",""x"":564,""y"":199},{""src"":""stims_boa/bas4.jpg"",""x"":538,""y"":120},{""src"":""stims_boa/sup8.jpg"",""x"":40,""y"":310},{""src"":""stims_boa/sub4.jpg"",""x"":378,""y"":534},{""src"":""stims_boa/sup4.jpg"",""x"":288,""y"":429}]",stims_boa,NA,NA,/Users/martincz/GitHub/cat-act/data/free-sort/raw/catact-free-sort_PARTICIPANT_SESSION_2023-09-27_10h50.08.597.csv,19
free-sort,7,227269,0.0-7.0,myoreXoCatActImGgkUdgAUOt,p372042,076d4ae9-1d81-4eff-8850-8afaec0d02bb,b84d97b9-f1dd-4366-b49d-82d0790674cb,NA,NA,NA,NA,NA,NA,72717.40000009537,"[{""src"":""stims_sta/sup6.jpg"",""x"":830.4000000000001,""y"":0},{""src"":""stims_sta/sub3.jpg"",""x"":-130.40000000000003,""y"":600},{""src"":""stims_sta/sub4.jpg"",""x"":830.4000000000001,""y"":200},{""src"":""stims_sta/sub1.jpg"",""x"":-130.40000000000003,""y"":400},{""src"":""stims_sta/sup2.jpg"",""x"":830.4000000000001,""y"":400},{""src"":""stims_sta/sup4.jpg"",""x"":-130.40000000000003,""y"":200},{""src"":""stims_sta/bas1.jpg"",""x"":830.4000000000001,""y"":600},{""src"":""stims_sta/sup5.jpg"",""x"":-130.40000000000003,""y"":0},{""src"":""stims_sta/bas4.jpg"",""x"":970.4000000000001,""y"":0},{""src"":""stims_sta/bas3.jpg"",""x"":-270.40000000000003,""y"":600},{""src"":""stims_sta/sup3.jpg"",""x"":970.4000000000001,""y"":200},{""src"":""stims_sta/sup1.jpg"",""x"":-270.40000000000003,""y"":400},{""src"":""stims_sta/sub5.jpg"",""x"":970.4000000000001,""y"":400},{""src"":""stims_sta/bas2.jpg"",""x"":-270.40000000000003,""y"":200},{""src"":""stims_sta/sub2.jpg"",""x"":970.4000000000001,""y"":600}]","[{""src"":""stims_sta/sub5.jpg"",""x"":460,""y"":72},{""src"":""stims_sta/sub1.jpg"",""x"":378,""y"":86},{""src"":""stims_sta/sub4.jpg"",""x"":542,""y"":138},{""src"":""stims_sta/sub2.jpg"",""x"":610,""y"":220},{""src"":""stims_sta/bas1.jpg"",""x"":406,""y"":540},{""src"":""stims_sta/bas4.jpg"",""x"":536,""y"":459},{""src"":""stims_sta/bas1.jpg"",""x"":444,""y"":520},{""src"":""stims_sta/bas3.jpg"",""x"":434,""y"":417},{""src"":""stims_sta/sub3.jpg"",""x"":436,""y"":173},{""src"":""stims_sta/bas2.jpg"",""x"":278,""y"":53},{""src"":""stims_sta/sup1.jpg"",""x"":-270,""y"":400},{""src"":""stims_sta/sup1.jpg"",""x"":-284,""y"":381},{""src"":""stims_sta/sup1.jpg"",""x"":-284,""y"":381},{""src"":""stims_sta/sup1.jpg"",""x"":-284,""y"":381},{""src"":""stims_sta/sup1.jpg"",""x"":124,""y"":151},{""src"":""stims_sta/sup4.jpg"",""x"":87,""y"":414},{""src"":""stims_sta/sup6.jpg"",""x"":209,""y"":216},{""src"":""stims_sta/sup3.jpg"",""x"":970,""y"":200},{""src"":""stims_sta/sup3.jpg"",""x"":160,""y"":496},{""src"":""stims_sta/sup5.jpg"",""x"":263,""y"":438},{""src"":""stims_sta/sup4.jpg"",""x"":200,""y"":377},{""src"":""stims_sta/sup2.jpg"",""x"":36,""y"":340}]","[{""src"":""stims_sta/sup6.jpg"",""x"":209,""y"":216},{""src"":""stims_sta/sub3.jpg"",""x"":436,""y"":173},{""src"":""stims_sta/sub4.jpg"",""x"":542,""y"":138},{""src"":""stims_sta/sub1.jpg"",""x"":378,""y"":86},{""src"":""stims_sta/sup2.jpg"",""x"":36,""y"":340},{""src"":""stims_sta/sup4.jpg"",""x"":200,""y"":377},{""src"":""stims_sta/bas1.jpg"",""x"":444,""y"":520},{""src"":""stims_sta/sup5.jpg"",""x"":263,""y"":438},{""src"":""stims_sta/bas4.jpg"",""x"":536,""y"":459},{""src"":""stims_sta/bas3.jpg"",""x"":434,""y"":417},{""src"":""stims_sta/sup3.jpg"",""x"":160,""y"":496},{""src"":""stims_sta/sup1.jpg"",""x"":124,""y"":151},{""src"":""stims_sta/sub5.jpg"",""x"":460,""y"":72},{""src"":""stims_sta/bas2.jpg"",""x"":278,""y"":53},{""src"":""stims_sta/sub2.jpg"",""x"":610,""y"":220}]",stims_sta,NA,NA,/Users/martincz/GitHub/cat-act/data/free-sort/raw/catact-free-sort_PARTICIPANT_SESSION_2023-09-27_10h50.08.597.csv,19
free-sort,8,291456,0.0-8.0,myoreXoCatActImGgkUdgAUOt,p372042,076d4ae9-1d81-4eff-8850-8afaec0d02bb,b84d97b9-f1dd-4366-b49d-82d0790674cb,NA,NA,NA,NA,NA,NA,64184.699999928474,"[{""src"":""stims_mus/sub1.jpg"",""x"":830.4000000000001,""y"":0},{""src"":""stims_mus/sup5.jpg"",""x"":-130.40000000000003,""y"":600},{""src"":""stims_mus/sup1.jpg"",""x"":830.4000000000001,""y"":200},{""src"":""stims_mus/bas2.jpg"",""x"":-130.40000000000003,""y"":400},{""src"":""stims_mus/sup6.jpg"",""x"":830.4000000000001,""y"":400},{""src"":""stims_mus/sup4.jpg"",""x"":-130.40000000000003,""y"":200},{""src"":""stims_mus/bas3.jpg"",""x"":830.4000000000001,""y"":600},{""src"":""stims_mus/sub3.jpg"",""x"":-130.40000000000003,""y"":0},{""src"":""stims_mus/sup2.jpg"",""x"":970.4000000000001,""y"":0},{""src"":""stims_mus/sub2.jpg"",""x"":-270.40000000000003,""y"":600},{""src"":""stims_mus/sub4.jpg"",""x"":970.4000000000001,""y"":200},{""src"":""stims_mus/bas1.jpg"",""x"":-270.40000000000003,""y"":400},{""src"":""stims_mus/sub5.jpg"",""x"":970.4000000000001,""y"":400},{""src"":""stims_mus/sup3.jpg"",""x"":-270.40000000000003,""y"":200},{""src"":""stims_mus/bas4.jpg"",""x"":970.4000000000001,""y"":600}]","[{""src"":""stims_mus/bas3.jpg"",""x"":231,""y"":521},{""src"":""stims_mus/bas1.jpg"",""x"":128,""y"":476},{""src"":""stims_mus/bas2.jpg"",""x"":228,""y"":427},{""src"":""stims_mus/sub2.jpg"",""x"":62,""y"":389},{""src"":""stims_mus/sub1.jpg"",""x"":157,""y"":380},{""src"":""stims_mus/sub4.jpg"",""x"":46,""y"":293},{""src"":""stims_mus/sub5.jpg"",""x"":150,""y"":288},{""src"":""stims_mus/sub3.jpg"",""x"":243,""y"":359},{""src"":""stims_mus/bas4.jpg"",""x"":439,""y"":498},{""src"":""stims_mus/sup1.jpg"",""x"":243,""y"":67},{""src"":""stims_mus/sup1.jpg"",""x"":243,""y"":67},{""src"":""stims_mus/sup2.jpg"",""x"":635,""y"":241},{""src"":""stims_mus/sup6.jpg"",""x"":617,""y"":355},{""src"":""stims_mus/sup2.jpg"",""x"":649,""y"":282},{""src"":""stims_mus/sup3.jpg"",""x"":555,""y"":278},{""src"":""stims_mus/sup5.jpg"",""x"":416,""y"":60},{""src"":""stims_mus/sup1.jpg"",""x"":532,""y"":65},{""src"":""stims_mus/sup5.jpg"",""x"":240,""y"":65},{""src"":""stims_mus/sup1.jpg"",""x"":445,""y"":103},{""src"":""stims_mus/bas4.jpg"",""x"":391,""y"":525},{""src"":""stims_mus/sup4.jpg"",""x"":155,""y"":79}]","[{""src"":""stims_mus/sub1.jpg"",""x"":157,""y"":380},{""src"":""stims_mus/sup5.jpg"",""x"":240,""y"":65},{""src"":""stims_mus/sup1.jpg"",""x"":445,""y"":103},{""src"":""stims_mus/bas2.jpg"",""x"":228,""y"":427},{""src"":""stims_mus/sup6.jpg"",""x"":617,""y"":355},{""src"":""stims_mus/sup4.jpg"",""x"":155,""y"":79},{""src"":""stims_mus/bas3.jpg"",""x"":231,""y"":521},{""src"":""stims_mus/sub3.jpg"",""x"":243,""y"":359},{""src"":""stims_mus/sup2.jpg"",""x"":649,""y"":282},{""src"":""stims_mus/sub2.jpg"",""x"":62,""y"":389},{""src"":""stims_mus/sub4.jpg"",""x"":46,""y"":293},{""src"":""stims_mus/bas1.jpg"",""x"":128,""y"":476},{""src"":""stims_mus/sub5.jpg"",""x"":150,""y"":288},{""src"":""stims_mus/sup3.jpg"",""x"":555,""y"":278},{""src"":""stims_mus/bas4.jpg"",""x"":391,""y"":525}]",stims_mus,NA,NA,/Users/martincz/GitHub/cat-act/data/free-sort/raw/catact-free-sort_PARTICIPANT_SESSION_2023-09-27_10h50.08.597.csv,19
free-sort,9,358004,0.0-9.0,myoreXoCatActImGgkUdgAUOt,p372042,076d4ae9-1d81-4eff-8850-8afaec0d02bb,b84d97b9-f1dd-4366-b49d-82d0790674cb,NA,NA,NA,NA,NA,NA,66546,"[{""src"":""stims_veh/sub2.jpg"",""x"":830.4000000000001,""y"":0},{""src"":""stims_veh/bas1.jpg"",""x"":-130.40000000000003,""y"":600},{""src"":""stims_veh/sup5.jpg"",""x"":830.4000000000001,""y"":200},{""src"":""stims_veh/sub5.jpg"",""x"":-130.40000000000003,""y"":400},{""src"":""stims_veh/sup2.jpg"",""x"":830.4000000000001,""y"":400},{""src"":""stims_veh/sup6.jpg"",""x"":-130.40000000000003,""y"":200},{""src"":""stims_veh/sup3.jpg"",""x"":830.4000000000001,""y"":600},{""src"":""stims_veh/sub3.jpg"",""x"":-130.40000000000003,""y"":0},{""src"":""stims_veh/bas4.jpg"",""x"":970.4000000000001,""y"":0},{""src"":""stims_veh/sup4.jpg"",""x"":-270.40000000000003,""y"":600},{""src"":""stims_veh/bas3.jpg"",""x"":970.4000000000001,""y"":200},{""src"":""stims_veh/sub4.jpg"",""x"":-270.40000000000003,""y"":400},{""src"":""stims_veh/sup1.jpg"",""x"":970.4000000000001,""y"":400},{""src"":""stims_veh/bas2.jpg"",""x"":-270.40000000000003,""y"":200},{""src"":""stims_veh/sub1.jpg"",""x"":970.4000000000001,""y"":600}]","[{""src"":""stims_veh/sub5.jpg"",""x"":116,""y"":156},{""src"":""stims_veh/sub3.jpg"",""x"":168,""y"":97},{""src"":""stims_veh/sub5.jpg"",""x"":110,""y"":175},{""src"":""stims_veh/sub4.jpg"",""x"":216,""y"":183},{""src"":""stims_veh/sub2.jpg"",""x"":270,""y"":88},{""src"":""stims_veh/sub1.jpg"",""x"":288,""y"":25},{""src"":""stims_veh/sub2.jpg"",""x"":268,""y"":105},{""src"":""stims_veh/bas4.jpg"",""x"":45,""y"":289},{""src"":""stims_veh/bas1.jpg"",""x"":145,""y"":343},{""src"":""stims_veh/bas3.jpg"",""x"":45,""y"":384},{""src"":""stims_veh/bas2.jpg"",""x"":138,""y"":423},{""src"":""stims_veh/sup2.jpg"",""x"":274,""y"":533},{""src"":""stims_veh/sup4.jpg"",""x"":297,""y"":469},{""src"":""stims_veh/sup6.jpg"",""x"":519,""y"":90},{""src"":""stims_veh/sup1.jpg"",""x"":665,""y"":269},{""src"":""stims_veh/sup1.jpg"",""x"":968,""y"":342},{""src"":""stims_veh/sup3.jpg"",""x"":657,""y"":296},{""src"":""stims_veh/sup1.jpg"",""x"":374,""y"":272},{""src"":""stims_veh/sup5.jpg"",""x"":490,""y"":481},{""src"":""stims_veh/sup1.jpg"",""x"":446,""y"":294},{""src"":""stims_veh/sup1.jpg"",""x"":360,""y"":281}]","[{""src"":""stims_veh/sub2.jpg"",""x"":268,""y"":105},{""src"":""stims_veh/bas1.jpg"",""x"":145,""y"":343},{""src"":""stims_veh/sup5.jpg"",""x"":490,""y"":481},{""src"":""stims_veh/sub5.jpg"",""x"":110,""y"":175},{""src"":""stims_veh/sup2.jpg"",""x"":274,""y"":533},{""src"":""stims_veh/sup6.jpg"",""x"":519,""y"":90},{""src"":""stims_veh/sup3.jpg"",""x"":657,""y"":296},{""src"":""stims_veh/sub3.jpg"",""x"":168,""y"":97},{""src"":""stims_veh/bas4.jpg"",""x"":45,""y"":289},{""src"":""stims_veh/sup4.jpg"",""x"":297,""y"":469},{""src"":""stims_veh/bas3.jpg"",""x"":45,""y"":384},{""src"":""stims_veh/sub4.jpg"",""x"":216,""y"":183},{""src"":""stims_veh/sup1.jpg"",""x"":360,""y"":281},{""src"":""stims_veh/bas2.jpg"",""x"":138,""y"":423},{""src"":""stims_veh/sub1.jpg"",""x"":288,""y"":25}]",stims_veh,NA,NA,/Users/martincz/GitHub/cat-act/data/free-sort/raw/catact-free-sort_PARTICIPANT_SESSION_2023-09-27_10h50.08.597.csv,19
free-sort,10,430453,0.0-10.0,myoreXoCatActImGgkUdgAUOt,p372042,076d4ae9-1d81-4eff-8850-8afaec0d02bb,b84d97b9-f1dd-4366-b49d-82d0790674cb,NA,NA,NA,NA,NA,NA,72447.90000009537,"[{""src"":""stims_spo/sup6.jpg"",""x"":830.4000000000001,""y"":0},{""src"":""stims_spo/sup5.jpg"",""x"":-130.40000000000003,""y"":600},{""src"":""stims_spo/bas4.jpg"",""x"":830.4000000000001,""y"":200},{""src"":""stims_spo/sub1.jpg"",""x"":-130.40000000000003,""y"":400},{""src"":""stims_spo/sub4.jpg"",""x"":830.4000000000001,""y"":400},{""src"":""stims_spo/bas3.jpg"",""x"":-130.40000000000003,""y"":200},{""src"":""stims_spo/sub5.jpg"",""x"":830.4000000000001,""y"":600},{""src"":""stims_spo/bas2.jpg"",""x"":-130.40000000000003,""y"":0},{""src"":""stims_spo/sub3.jpg"",""x"":970.4000000000001,""y"":0},{""src"":""stims_spo/sup3.jpg"",""x"":-270.40000000000003,""y"":600},{""src"":""stims_spo/sup2.jpg"",""x"":970.4000000000001,""y"":200},{""src"":""stims_spo/sub2.jpg"",""x"":-270.40000000000003,""y"":400},{""src"":""stims_spo/sup1.jpg"",""x"":970.4000000000001,""y"":400},{""src"":""stims_spo/bas1.jpg"",""x"":-270.40000000000003,""y"":200},{""src"":""stims_spo/sup4.jpg"",""x"":970.4000000000001,""y"":600}]","[{""src"":""stims_spo/sub4.jpg"",""x"":445,""y"":58},{""src"":""stims_spo/sub1.jpg"",""x"":543,""y"":108},{""src"":""stims_spo/sub2.jpg"",""x"":442,""y"":161},{""src"":""stims_spo/sub3.jpg"",""x"":640,""y"":182},{""src"":""stims_spo/sub5.jpg"",""x"":540,""y"":166},{""src"":""stims_spo/sub5.jpg"",""x"":546,""y"":217},{""src"":""stims_spo/bas3.jpg"",""x"":421,""y"":416},{""src"":""stims_spo/sup1.jpg"",""x"":479,""y"":519},{""src"":""stims_spo/bas4.jpg"",""x"":261,""y"":151},{""src"":""stims_spo/sup4.jpg"",""x"":161,""y"":103},{""src"":""stims_spo/bas4.jpg"",""x"":275,""y"":123},{""src"":""stims_spo/sup4.jpg"",""x"":188,""y"":66},{""src"":""stims_spo/bas3.jpg"",""x"":526,""y"":372},{""src"":""stims_spo/sup1.jpg"",""x"":592,""y"":457},{""src"":""stims_spo/bas1.jpg"",""x"":234,""y"":265},{""src"":""stims_spo/bas2.jpg"",""x"":368,""y"":340},{""src"":""stims_spo/sup5.jpg"",""x"":431,""y"":550},{""src"":""stims_spo/sup2.jpg"",""x"":241,""y"":407},{""src"":""stims_spo/sup3.jpg"",""x"":34,""y"":309},{""src"":""stims_spo/sup6.jpg"",""x"":83,""y"":461},{""src"":""stims_spo/sup6.jpg"",""x"":149,""y"":534},{""src"":""stims_spo/sup2.jpg"",""x"":241,""y"":407},{""src"":""stims_spo/bas1.jpg"",""x"":304,""y"":247},{""src"":""stims_spo/sup2.jpg"",""x"":222,""y"":370}]","[{""src"":""stims_spo/sup6.jpg"",""x"":149,""y"":534},{""src"":""stims_spo/sup5.jpg"",""x"":431,""y"":550},{""src"":""stims_spo/bas4.jpg"",""x"":275,""y"":123},{""src"":""stims_spo/sub1.jpg"",""x"":543,""y"":108},{""src"":""stims_spo/sub4.jpg"",""x"":445,""y"":58},{""src"":""stims_spo/bas3.jpg"",""x"":526,""y"":372},{""src"":""stims_spo/sub5.jpg"",""x"":546,""y"":217},{""src"":""stims_spo/bas2.jpg"",""x"":368,""y"":340},{""src"":""stims_spo/sub3.jpg"",""x"":640,""y"":182},{""src"":""stims_spo/sup3.jpg"",""x"":34,""y"":309},{""src"":""stims_spo/sup2.jpg"",""x"":222,""y"":370},{""src"":""stims_spo/sub2.jpg"",""x"":442,""y"":161},{""src"":""stims_spo/sup1.jpg"",""x"":592,""y"":457},{""src"":""stims_spo/bas1.jpg"",""x"":304,""y"":247},{""src"":""stims_spo/sup4.jpg"",""x"":188,""y"":66}]",stims_spo,NA,NA,/Users/martincz/GitHub/cat-act/data/free-sort/raw/catact-free-sort_PARTICIPANT_SESSION_2023-09-27_10h50.08.597.csv,19
free-sort,11,472625,0.0-11.0,myoreXoCatActImGgkUdgAUOt,p372042,076d4ae9-1d81-4eff-8850-8afaec0d02bb,b84d97b9-f1dd-4366-b49d-82d0790674cb,NA,NA,NA,NA,NA,NA,42169,"[{""src"":""stims_sea/sup1.jpg"",""x"":830.4000000000001,""y"":0},{""src"":""stims_sea/sup5.jpg"",""x"":-130.40000000000003,""y"":600},{""src"":""stims_sea/sub1.jpg"",""x"":830.4000000000001,""y"":200},{""src"":""stims_sea/bas3.jpg"",""x"":-130.40000000000003,""y"":400},{""src"":""stims_sea/sup2.jpg"",""x"":830.4000000000001,""y"":400},{""src"":""stims_sea/sub2.jpg"",""x"":-130.40000000000003,""y"":200},{""src"":""stims_sea/sub3.jpg"",""x"":830.4000000000001,""y"":600},{""src"":""stims_sea/sub5.jpg"",""x"":-130.40000000000003,""y"":0},{""src"":""stims_sea/bas2.jpg"",""x"":970.4000000000001,""y"":0},{""src"":""stims_sea/sup3.jpg"",""x"":-270.40000000000003,""y"":600},{""src"":""stims_sea/sub4.jpg"",""x"":970.4000000000001,""y"":200},{""src"":""stims_sea/bas4.jpg"",""x"":-270.40000000000003,""y"":400},{""src"":""stims_sea/bas1.jpg"",""x"":970.4000000000001,""y"":400},{""src"":""stims_sea/sup4.jpg"",""x"":-270.40000000000003,""y"":200},{""src"":""stims_sea/sup6.jpg"",""x"":970.4000000000001,""y"":600}]","[{""src"":""stims_sea/sub1.jpg"",""x"":165,""y"":102},{""src"":""stims_sea/sub5.jpg"",""x"":241,""y"":38},{""src"":""stims_sea/sub2.jpg"",""x"":268,""y"":140},{""src"":""stims_sea/sub4.jpg"",""x"":70,""y"":154},{""src"":""stims_sea/sub3.jpg"",""x"":167,""y"":205},{""src"":""stims_sea/bas2.jpg"",""x"":436,""y"":61},{""src"":""stims_sea/bas1.jpg"",""x"":402,""y"":172},{""src"":""stims_sea/bas3.jpg"",""x"":505,""y"":159},{""src"":""stims_sea/bas4.jpg"",""x"":471,""y"":250},{""src"":""stims_sea/sup1.jpg"",""x"":320,""y"":578},{""src"":""stims_sea/sup3.jpg"",""x"":323,""y"":290},{""src"":""stims_sea/sup2.jpg"",""x"":610,""y"":424},{""src"":""stims_sea/sup5.jpg"",""x"":511,""y"":508},{""src"":""stims_sea/sup4.jpg"",""x"":650,""y"":307},{""src"":""stims_sea/sup6.jpg"",""x"":94,""y"":416}]","[{""src"":""stims_sea/sup1.jpg"",""x"":320,""y"":578},{""src"":""stims_sea/sup5.jpg"",""x"":511,""y"":508},{""src"":""stims_sea/sub1.jpg"",""x"":165,""y"":102},{""src"":""stims_sea/bas3.jpg"",""x"":505,""y"":159},{""src"":""stims_sea/sup2.jpg"",""x"":610,""y"":424},{""src"":""stims_sea/sub2.jpg"",""x"":268,""y"":140},{""src"":""stims_sea/sub3.jpg"",""x"":167,""y"":205},{""src"":""stims_sea/sub5.jpg"",""x"":241,""y"":38},{""src"":""stims_sea/bas2.jpg"",""x"":436,""y"":61},{""src"":""stims_sea/sup3.jpg"",""x"":323,""y"":290},{""src"":""stims_sea/sub4.jpg"",""x"":70,""y"":154},{""src"":""stims_sea/bas4.jpg"",""x"":471,""y"":250},{""src"":""stims_sea/bas1.jpg"",""x"":402,""y"":172},{""src"":""stims_sea/sup4.jpg"",""x"":650,""y"":307},{""src"":""stims_sea/sup6.jpg"",""x"":94,""y"":416}]",stims_sea,NA,NA,/Users/martincz/GitHub/cat-act/data/free-sort/raw/catact-free-sort_PARTICIPANT_SESSION_2023-09-27_10h50.08.597.csv,19
survey-text,12,477052,0.0-12.0-0.0,myoreXoCatActImGgkUdgAUOt,p372042,076d4ae9-1d81-4eff-8850-8afaec0d02bb,b84d97b9-f1dd-4366-b49d-82d0790674cb,NA,NA,NA,NA,NA,NA,4412.600000023842,NA,NA,NA,NA,"{""age"":""55""}",NA,/Users/martincz/GitHub/cat-act/data/free-sort/raw/catact-free-sort_PARTICIPANT_SESSION_2023-09-27_10h50.08.597.csv,19
survey-text,13,481235,0.0-12.0-1.0,myoreXoCatActImGgkUdgAUOt,p372042,076d4ae9-1d81-4eff-8850-8afaec0d02bb,b84d97b9-f1dd-4366-b49d-82d0790674cb,NA,NA,NA,NA,NA,NA,4175.399999976158,NA,NA,NA,NA,"{""gender"":""female""}",NA,/Users/martincz/GitHub/cat-act/data/free-sort/raw/catact-free-sort_PARTICIPANT_SESSION_2023-09-27_10h50.08.597.csv,19
survey-text,14,487241,0.0-12.0-2.0,myoreXoCatActImGgkUdgAUOt,p372042,076d4ae9-1d81-4eff-8850-8afaec0d02bb,b84d97b9-f1dd-4366-b49d-82d0790674cb,NA,NA,NA,NA,NA,NA,5998.899999976158,NA,NA,NA,NA,"{""country"":""United States""}",NA,/Users/martincz/GitHub/cat-act/data/free-sort/raw/catact-free-sort_PARTICIPANT_SESSION_2023-09-27_10h50.08.597.csv,19
survey-text,15,495570,0.0-12.0-3.0,myoreXoCatActImGgkUdgAUOt,p372042,076d4ae9-1d81-4eff-8850-8afaec0d02bb,b84d97b9-f1dd-4366-b49d-82d0790674cb,NA,NA,NA,NA,NA,NA,8321.299999952316,NA,NA,NA,NA,"{""language"":""English"",""other_languages"":""Italian""}",NA,/Users/martincz/GitHub/cat-act/data/free-sort/raw/catact-free-sort_PARTICIPANT_SESSION_2023-09-27_10h50.08.597.csv,19
survey-multi-select,16,498597,0.0-13.0,myoreXoCatActImGgkUdgAUOt,p372042,076d4ae9-1d81-4eff-8850-8afaec0d02bb,b84d97b9-f1dd-4366-b49d-82d0790674cb,NA,NA,NA,NA,NA,NA,3016,NA,NA,NA,NA,"{""race"":[""White""]}",[0],/Users/martincz/GitHub/cat-act/data/free-sort/raw/catact-free-sort_PARTICIPANT_SESSION_2023-09-27_10h50.08.597.csv,19
survey-multi-choice,17,502478,0.0-14.0,myoreXoCatActImGgkUdgAUOt,p372042,076d4ae9-1d81-4eff-8850-8afaec0d02bb,b84d97b9-f1dd-4366-b49d-82d0790674cb,NA,NA,NA,NA,NA,NA,3877.799999952316,NA,NA,NA,NA,"{""education"":""Doctoral degree""}",[0],/Users/martincz/GitHub/cat-act/data/free-sort/raw/catact-free-sort_PARTICIPANT_SESSION_2023-09-27_10h50.08.597.csv,19
survey-text,18,508587,0.0-15.0,myoreXoCatActImGgkUdgAUOt,p372042,076d4ae9-1d81-4eff-8850-8afaec0d02bb,b84d97b9-f1dd-4366-b49d-82d0790674cb,NA,NA,NA,NA,NA,NA,6097,NA,NA,NA,NA,"{""issues"":""no"",""comments"":""no""}",NA,/Users/martincz/GitHub/cat-act/data/free-sort/raw/catact-free-sort_PARTICIPANT_SESSION_2023-09-27_10h50.08.597.csv,19
pavlovia,0,7,0.0-0.0,ZvmgvOMCatActImUQZBQlLBbQ,p949692,076d4ae9-1d81-4eff-8850-8afaec0d02bb,1ef6de3e-19b6-47a8-be24-a54e1292a88d,NA,NA,NA,NA,NA,NA,NA,NA,NA,NA,NA,NA,NA,/Users/martincz/GitHub/cat-act/data/free-sort/raw/catact-free-sort_PARTICIPANT_SESSION_2023-09-27_10h55.55.218.csv,19
preload,1,4248,0.0-1.0,ZvmgvOMCatActImUQZBQlLBbQ,p949692,076d4ae9-1d81-4eff-8850-8afaec0d02bb,1ef6de3e-19b6-47a8-be24-a54e1292a88d,TRUE,FALSE,[],[],[],NA,NA,NA,NA,NA,NA,NA,NA,/Users/martincz/GitHub/cat-act/data/free-sort/raw/catact-free-sort_PARTICIPANT_SESSION_2023-09-27_10h55.55.218.csv,19
fullscreen,2,7052,0.0-2.0,ZvmgvOMCatActImUQZBQlLBbQ,p949692,076d4ae9-1d81-4eff-8850-8afaec0d02bb,1ef6de3e-19b6-47a8-be24-a54e1292a88d,TRUE,NA,NA,NA,NA,NA,NA,NA,NA,NA,NA,NA,NA,/Users/martincz/GitHub/cat-act/data/free-sort/raw/catact-free-sort_PARTICIPANT_SESSION_2023-09-27_10h55.55.218.csv,19
instructions,3,35446,0.0-3.0,ZvmgvOMCatActImUQZBQlLBbQ,p949692,076d4ae9-1d81-4eff-8850-8afaec0d02bb,1ef6de3e-19b6-47a8-be24-a54e1292a88d,NA,NA,NA,NA,NA,"[{""page_index"":0,""viewing_time"":12661.799999713898},{""page_index"":1,""viewing_time"":6672.800000190735},{""page_index"":2,""viewing_time"":5056.199999809265},{""page_index"":3,""viewing_time"":3999.6000003814697}]",28390.799999713898,NA,NA,NA,NA,NA,NA,/Users/martincz/GitHub/cat-act/data/free-sort/raw/catact-free-sort_PARTICIPANT_SESSION_2023-09-27_10h55.55.218.csv,19
free-sort,4,41851,0.0-4.0,ZvmgvOMCatActImUQZBQlLBbQ,p949692,076d4ae9-1d81-4eff-8850-8afaec0d02bb,1ef6de3e-19b6-47a8-be24-a54e1292a88d,NA,NA,NA,NA,NA,NA,6404,"[{""src"":""images/house_2.jpg"",""x"":877.0666666666667,""y"":0},{""src"":""images/cottage.jpg"",""x"":-177.0666666666667,""y"":600},{""src"":""images/house_3.jpg"",""x"":877.0666666666667,""y"":600},{""src"":""images/house_1.jpg"",""x"":-177.0666666666667,""y"":0}]","[{""src"":""images/house_1.jpg"",""x"":287,""y"":79},{""src"":""images/house_2.jpg"",""x"":403,""y"":77},{""src"":""images/house_3.jpg"",""x"":496,""y"":144},{""src"":""images/cottage.jpg"",""x"":198,""y"":503}]","[{""src"":""images/house_2.jpg"",""x"":403,""y"":77},{""src"":""images/cottage.jpg"",""x"":198,""y"":503},{""src"":""images/house_3.jpg"",""x"":496,""y"":144},{""src"":""images/house_1.jpg"",""x"":287,""y"":79}]",practice_1,NA,NA,/Users/martincz/GitHub/cat-act/data/free-sort/raw/catact-free-sort_PARTICIPANT_SESSION_2023-09-27_10h55.55.218.csv,19
free-sort,5,51541,0.0-5.0,ZvmgvOMCatActImUQZBQlLBbQ,p949692,076d4ae9-1d81-4eff-8850-8afaec0d02bb,1ef6de3e-19b6-47a8-be24-a54e1292a88d,NA,NA,NA,NA,NA,NA,9689,"[{""src"":""images/screwdriver_2.jpg"",""x"":877.0666666666667,""y"":0},{""src"":""images/screwdriver_1.jpg"",""x"":-177.0666666666667,""y"":600},{""src"":""images/hammer_2.jpg"",""x"":877.0666666666667,""y"":300},{""src"":""images/hammer_1.jpg"",""x"":-177.0666666666667,""y"":300},{""src"":""images/microphone.jpg"",""x"":877.0666666666667,""y"":600}]","[{""src"":""images/hammer_1.jpg"",""x"":128,""y"":187},{""src"":""images/screwdriver_1.jpg"",""x"":312,""y"":489},{""src"":""images/hammer_2.jpg"",""x"":219,""y"":94},{""src"":""images/screwdriver_1.jpg"",""x"":553,""y"":163},{""src"":""images/screwdriver_2.jpg"",""x"":513,""y"":83},{""src"":""images/microphone.jpg"",""x"":325,""y"":464}]","[{""src"":""images/screwdriver_2.jpg"",""x"":513,""y"":83},{""src"":""images/screwdriver_1.jpg"",""x"":553,""y"":163},{""src"":""images/hammer_2.jpg"",""x"":219,""y"":94},{""src"":""images/hammer_1.jpg"",""x"":128,""y"":187},{""src"":""images/microphone.jpg"",""x"":325,""y"":464}]",practice_2,NA,NA,/Users/martincz/GitHub/cat-act/data/free-sort/raw/catact-free-sort_PARTICIPANT_SESSION_2023-09-27_10h55.55.218.csv,19
free-sort,6,78196,0.0-6.0,ZvmgvOMCatActImUQZBQlLBbQ,p949692,076d4ae9-1d81-4eff-8850-8afaec0d02bb,1ef6de3e-19b6-47a8-be24-a54e1292a88d,NA,NA,NA,NA,NA,NA,26652.5,"[{""src"":""stims_spo/sup2.jpg"",""x"":830.4000000000001,""y"":0},{""src"":""stims_spo/sup3.jpg"",""x"":-130.40000000000003,""y"":600},{""src"":""stims_spo/sub2.jpg"",""x"":830.4000000000001,""y"":200},{""src"":""stims_spo/bas3.jpg"",""x"":-130.40000000000003,""y"":400},{""src"":""stims_spo/bas4.jpg"",""x"":830.4000000000001,""y"":400},{""src"":""stims_spo/sup1.jpg"",""x"":-130.40000000000003,""y"":200},{""src"":""stims_spo/sup5.jpg"",""x"":830.4000000000001,""y"":600},{""src"":""stims_spo/sub4.jpg"",""x"":-130.40000000000003,""y"":0},{""src"":""stims_spo/bas1.jpg"",""x"":970.4000000000001,""y"":0},{""src"":""stims_spo/sup6.jpg"",""x"":-270.40000000000003,""y"":600},{""src"":""stims_spo/sub1.jpg"",""x"":970.4000000000001,""y"":200},{""src"":""stims_spo/bas2.jpg"",""x"":-270.40000000000003,""y"":400},{""src"":""stims_spo/sub5.jpg"",""x"":970.4000000000001,""y"":400},{""src"":""stims_spo/sup4.jpg"",""x"":-270.40000000000003,""y"":200},{""src"":""stims_spo/sub3.jpg"",""x"":970.4000000000001,""y"":600}]","[{""src"":""stims_spo/sub4.jpg"",""x"":178,""y"":90},{""src"":""stims_spo/bas2.jpg"",""x"":118,""y"":164},{""src"":""stims_spo/bas3.jpg"",""x"":174,""y"":133},{""src"":""stims_spo/bas3.jpg"",""x"":215,""y"":166},{""src"":""stims_spo/sup1.jpg"",""x"":90,""y"":386},{""src"":""stims_spo/sup4.jpg"",""x"":144,""y"":418},{""src"":""stims_spo/sup6.jpg"",""x"":134,""y"":494},{""src"":""stims_spo/sup3.jpg"",""x"":267,""y"":498},{""src"":""stims_spo/sub5.jpg"",""x"":283,""y"":90},{""src"":""stims_spo/sub2.jpg"",""x"":463,""y"":138},{""src"":""stims_spo/sub1.jpg"",""x"":466,""y"":130},{""src"":""stims_spo/sub1.jpg"",""x"":411,""y"":58},{""src"":""stims_spo/sub2.jpg"",""x"":496,""y"":83},{""src"":""stims_spo/bas1.jpg"",""x"":375,""y"":171},{""src"":""stims_spo/bas4.jpg"",""x"":477,""y"":197},{""src"":""stims_spo/sub3.jpg"",""x"":580,""y"":223},{""src"":""stims_spo/sup5.jpg"",""x"":466,""y"":533},{""src"":""stims_spo/sup6.jpg"",""x"":296,""y"":270},{""src"":""stims_spo/sup2.jpg"",""x"":381,""y"":485},{""src"":""stims_spo/sup6.jpg"",""x"":583,""y"":463}]","[{""src"":""stims_spo/sup2.jpg"",""x"":381,""y"":485},{""src"":""stims_spo/sup3.jpg"",""x"":267,""y"":498},{""src"":""stims_spo/sub2.jpg"",""x"":496,""y"":83},{""src"":""stims_spo/bas3.jpg"",""x"":215,""y"":166},{""src"":""stims_spo/bas4.jpg"",""x"":477,""y"":197},{""src"":""stims_spo/sup1.jpg"",""x"":90,""y"":386},{""src"":""stims_spo/sup5.jpg"",""x"":466,""y"":533},{""src"":""stims_spo/sub4.jpg"",""x"":178,""y"":90},{""src"":""stims_spo/bas1.jpg"",""x"":375,""y"":171},{""src"":""stims_spo/sup6.jpg"",""x"":583,""y"":463},{""src"":""stims_spo/sub1.jpg"",""x"":411,""y"":58},{""src"":""stims_spo/bas2.jpg"",""x"":118,""y"":164},{""src"":""stims_spo/sub5.jpg"",""x"":283,""y"":90},{""src"":""stims_spo/sup4.jpg"",""x"":144,""y"":418},{""src"":""stims_spo/sub3.jpg"",""x"":580,""y"":223}]",stims_spo,NA,NA,/Users/martincz/GitHub/cat-act/data/free-sort/raw/catact-free-sort_PARTICIPANT_SESSION_2023-09-27_10h55.55.218.csv,19
free-sort,7,102370,0.0-7.0,ZvmgvOMCatActImUQZBQlLBbQ,p949692,076d4ae9-1d81-4eff-8850-8afaec0d02bb,1ef6de3e-19b6-47a8-be24-a54e1292a88d,NA,NA,NA,NA,NA,NA,24172.400000095367,"[{""src"":""stims_sta/sup1.jpg"",""x"":830.4000000000001,""y"":0},{""src"":""stims_sta/sub3.jpg"",""x"":-130.40000000000003,""y"":600},{""src"":""stims_sta/bas1.jpg"",""x"":830.4000000000001,""y"":200},{""src"":""stims_sta/sub5.jpg"",""x"":-130.40000000000003,""y"":400},{""src"":""stims_sta/sup4.jpg"",""x"":830.4000000000001,""y"":400},{""src"":""stims_sta/sub2.jpg"",""x"":-130.40000000000003,""y"":200},{""src"":""stims_sta/bas4.jpg"",""x"":830.4000000000001,""y"":600},{""src"":""stims_sta/sup2.jpg"",""x"":-130.40000000000003,""y"":0},{""src"":""stims_sta/sup5.jpg"",""x"":970.4000000000001,""y"":0},{""src"":""stims_sta/sub4.jpg"",""x"":-270.40000000000003,""y"":600},{""src"":""stims_sta/bas3.jpg"",""x"":970.4000000000001,""y"":200},{""src"":""stims_sta/bas2.jpg"",""x"":-270.40000000000003,""y"":400},{""src"":""stims_sta/sup3.jpg"",""x"":970.4000000000001,""y"":400},{""src"":""stims_sta/sub1.jpg"",""x"":-270.40000000000003,""y"":200},{""src"":""stims_sta/sup6.jpg"",""x"":970.4000000000001,""y"":600}]","[{""src"":""stims_sta/sup2.jpg"",""x"":210,""y"":129},{""src"":""stims_sta/sub2.jpg"",""x"":180,""y"":489},{""src"":""stims_sta/sup2.jpg"",""x"":220,""y"":89},{""src"":""stims_sta/sub1.jpg"",""x"":255,""y"":413},{""src"":""stims_sta/sub5.jpg"",""x"":201,""y"":436},{""src"":""stims_sta/sub2.jpg"",""x"":258,""y"":550},{""src"":""stims_sta/sub2.jpg"",""x"":250,""y"":525},{""src"":""stims_sta/sub1.jpg"",""x"":211,""y"":401},{""src"":""stims_sta/sub1.jpg"",""x"":91,""y"":371},{""src"":""stims_sta/sub5.jpg"",""x"":187,""y"":409},{""src"":""stims_sta/sub3.jpg"",""x"":155,""y"":489},{""src"":""stims_sta/sub4.jpg"",""x"":289,""y"":402},{""src"":""stims_sta/bas2.jpg"",""x"":379,""y"":516},{""src"":""stims_sta/bas3.jpg"",""x"":479,""y"":486},{""src"":""stims_sta/bas1.jpg"",""x"":412,""y"":428},{""src"":""stims_sta/bas4.jpg"",""x"":558,""y"":442},{""src"":""stims_sta/sup4.jpg"",""x"":304,""y"":91},{""src"":""stims_sta/sup3.jpg"",""x"":463,""y"":93},{""src"":""stims_sta/sup1.jpg"",""x"":567,""y"":125},{""src"":""stims_sta/sup5.jpg"",""x"":103,""y"":157},{""src"":""stims_sta/sup6.jpg"",""x"":409,""y"":202},{""src"":""stims_sta/sub1.jpg"",""x"":80,""y"":404}]","[{""src"":""stims_sta/sup1.jpg"",""x"":567,""y"":125},{""src"":""stims_sta/sub3.jpg"",""x"":155,""y"":489},{""src"":""stims_sta/bas1.jpg"",""x"":412,""y"":428},{""src"":""stims_sta/sub5.jpg"",""x"":187,""y"":409},{""src"":""stims_sta/sup4.jpg"",""x"":304,""y"":91},{""src"":""stims_sta/sub2.jpg"",""x"":250,""y"":525},{""src"":""stims_sta/bas4.jpg"",""x"":558,""y"":442},{""src"":""stims_sta/sup2.jpg"",""x"":220,""y"":89},{""src"":""stims_sta/sup5.jpg"",""x"":103,""y"":157},{""src"":""stims_sta/sub4.jpg"",""x"":289,""y"":402},{""src"":""stims_sta/bas3.jpg"",""x"":479,""y"":486},{""src"":""stims_sta/bas2.jpg"",""x"":379,""y"":516},{""src"":""stims_sta/sup3.jpg"",""x"":463,""y"":93},{""src"":""stims_sta/sub1.jpg"",""x"":80,""y"":404},{""src"":""stims_sta/sup6.jpg"",""x"":409,""y"":202}]",stims_sta,NA,NA,/Users/martincz/GitHub/cat-act/data/free-sort/raw/catact-free-sort_PARTICIPANT_SESSION_2023-09-27_10h55.55.218.csv,19
free-sort,8,123300,0.0-8.0,ZvmgvOMCatActImUQZBQlLBbQ,p949692,076d4ae9-1d81-4eff-8850-8afaec0d02bb,1ef6de3e-19b6-47a8-be24-a54e1292a88d,NA,NA,NA,NA,NA,NA,20929,"[{""src"":""stims_fru/sub1.jpg"",""x"":830.4000000000001,""y"":0},{""src"":""stims_fru/bas3.jpg"",""x"":-130.40000000000003,""y"":600},{""src"":""stims_fru/sub4.jpg"",""x"":830.4000000000001,""y"":200},{""src"":""stims_fru/sup5.jpg"",""x"":-130.40000000000003,""y"":400},{""src"":""stims_fru/sup4.jpg"",""x"":830.4000000000001,""y"":400},{""src"":""stims_fru/bas4.jpg"",""x"":-130.40000000000003,""y"":200},{""src"":""stims_fru/bas2.jpg"",""x"":830.4000000000001,""y"":600},{""src"":""stims_fru/sub3.jpg"",""x"":-130.40000000000003,""y"":0},{""src"":""stims_fru/sup2.jpg"",""x"":970.4000000000001,""y"":0},{""src"":""stims_fru/sub2.jpg"",""x"":-270.40000000000003,""y"":600},{""src"":""stims_fru/sup3.jpg"",""x"":970.4000000000001,""y"":200},{""src"":""stims_fru/bas1.jpg"",""x"":-270.40000000000003,""y"":400},{""src"":""stims_fru/sup1.jpg"",""x"":970.4000000000001,""y"":400},{""src"":""stims_fru/sup6.jpg"",""x"":-270.40000000000003,""y"":200},{""src"":""stims_fru/sub5.jpg"",""x"":970.4000000000001,""y"":600}]","[{""src"":""stims_fru/sub3.jpg"",""x"":238,""y"":101},{""src"":""stims_fru/bas4.jpg"",""x"":176,""y"":179},{""src"":""stims_fru/bas1.jpg"",""x"":97,""y"":206},{""src"":""stims_fru/bas3.jpg"",""x"":92,""y"":290},{""src"":""stims_fru/sub2.jpg"",""x"":111,""y"":359},{""src"":""stims_fru/sup5.jpg"",""x"":536,""y"":484},{""src"":""stims_fru/sup1.jpg"",""x"":589,""y"":363},{""src"":""stims_fru/sup3.jpg"",""x"":618,""y"":245},{""src"":""stims_fru/sup4.jpg"",""x"":575,""y"":140},{""src"":""stims_fru/sup2.jpg"",""x"":488,""y"":284},{""src"":""stims_fru/bas2.jpg"",""x"":118,""y"":472},{""src"":""stims_fru/sup6.jpg"",""x"":480,""y"":167},{""src"":""stims_fru/sub1.jpg"",""x"":174,""y"":268},{""src"":""stims_fru/sub4.jpg"",""x"":205,""y"":370},{""src"":""stims_fru/sub5.jpg"",""x"":246,""y"":489}]","[{""src"":""stims_fru/sub1.jpg"",""x"":174,""y"":268},{""src"":""stims_fru/bas3.jpg"",""x"":92,""y"":290},{""src"":""stims_fru/sub4.jpg"",""x"":205,""y"":370},{""src"":""stims_fru/sup5.jpg"",""x"":536,""y"":484},{""src"":""stims_fru/sup4.jpg"",""x"":575,""y"":140},{""src"":""stims_fru/bas4.jpg"",""x"":176,""y"":179},{""src"":""stims_fru/bas2.jpg"",""x"":118,""y"":472},{""src"":""stims_fru/sub3.jpg"",""x"":238,""y"":101},{""src"":""stims_fru/sup2.jpg"",""x"":488,""y"":284},{""src"":""stims_fru/sub2.jpg"",""x"":111,""y"":359},{""src"":""stims_fru/sup3.jpg"",""x"":618,""y"":245},{""src"":""stims_fru/bas1.jpg"",""x"":97,""y"":206},{""src"":""stims_fru/sup1.jpg"",""x"":589,""y"":363},{""src"":""stims_fru/sup6.jpg"",""x"":480,""y"":167},{""src"":""stims_fru/sub5.jpg"",""x"":246,""y"":489}]",stims_fru,NA,NA,/Users/martincz/GitHub/cat-act/data/free-sort/raw/catact-free-sort_PARTICIPANT_SESSION_2023-09-27_10h55.55.218.csv,19
free-sort,9,164746,0.0-9.0,ZvmgvOMCatActImUQZBQlLBbQ,p949692,076d4ae9-1d81-4eff-8850-8afaec0d02bb,1ef6de3e-19b6-47a8-be24-a54e1292a88d,NA,NA,NA,NA,NA,NA,41445.09999990463,"[{""src"":""stims_ani/sub2.jpg"",""x"":830.4000000000001,""y"":0},{""src"":""stims_ani/sup3.jpg"",""x"":-130.40000000000003,""y"":600},{""src"":""stims_ani/bas4.jpg"",""x"":830.4000000000001,""y"":200},{""src"":""stims_ani/sup6.jpg"",""x"":-130.40000000000003,""y"":400},{""src"":""stims_ani/bas2.jpg"",""x"":830.4000000000001,""y"":400},{""src"":""stims_ani/sup2.jpg"",""x"":-130.40000000000003,""y"":200},{""src"":""stims_ani/bas3.jpg"",""x"":830.4000000000001,""y"":600},{""src"":""stims_ani/sup1.jpg"",""x"":-130.40000000000003,""y"":0},{""src"":""stims_ani/sup5.jpg"",""x"":970.4000000000001,""y"":0},{""src"":""stims_ani/sub4.jpg"",""x"":-270.40000000000003,""y"":600},{""src"":""stims_ani/sub3.jpg"",""x"":970.4000000000001,""y"":200},{""src"":""stims_ani/bas1.jpg"",""x"":-270.40000000000003,""y"":400},{""src"":""stims_ani/sub5.jpg"",""x"":970.4000000000001,""y"":400},{""src"":""stims_ani/sup4.jpg"",""x"":-270.40000000000003,""y"":200},{""src"":""stims_ani/sub1.jpg"",""x"":970.4000000000001,""y"":600}]","[{""src"":""stims_ani/sup1.jpg"",""x"":216,""y"":92},{""src"":""stims_ani/sup4.jpg"",""x"":121,""y"":173},{""src"":""stims_ani/sup1.jpg"",""x"":170,""y"":77},{""src"":""stims_ani/sup4.jpg"",""x"":81,""y"":167},{""src"":""stims_ani/sup2.jpg"",""x"":602,""y"":296},{""src"":""stims_ani/bas1.jpg"",""x"":53,""y"":287},{""src"":""stims_ani/sup6.jpg"",""x"":601,""y"":193},{""src"":""stims_ani/sup3.jpg"",""x"":63,""y"":372},{""src"":""stims_ani/sub4.jpg"",""x"":178,""y"":283},{""src"":""stims_ani/bas3.jpg"",""x"":135,""y"":488},{""src"":""stims_ani/bas2.jpg"",""x"":232,""y"":494},{""src"":""stims_ani/sub5.jpg"",""x"":189,""y"":390},{""src"":""stims_ani/sup4.jpg"",""x"":518,""y"":108},{""src"":""stims_ani/sup1.jpg"",""x"":425,""y"":68},{""src"":""stims_ani/sub2.jpg"",""x"":68,""y"":171},{""src"":""stims_ani/bas1.jpg"",""x"":189,""y"":162},{""src"":""stims_ani/sup3.jpg"",""x"":62,""y"":388},{""src"":""stims_ani/sub5.jpg"",""x"":60,""y"":282},{""src"":""stims_ani/sup3.jpg"",""x"":594,""y"":410},{""src"":""stims_ani/bas3.jpg"",""x"":56,""y"":390},{""src"":""stims_ani/bas2.jpg"",""x"":166,""y"":396},{""src"":""stims_ani/sub1.jpg"",""x"":237,""y"":495},{""src"":""stims_ani/sub3.jpg"",""x"":264,""y"":296},{""src"":""stims_ani/bas2.jpg"",""x"":286,""y"":500},{""src"":""stims_ani/sub1.jpg"",""x"":177,""y"":383},{""src"":""stims_ani/bas2.jpg"",""x"":169,""y"":488},{""src"":""stims_ani/bas4.jpg"",""x"":275,""y"":491},{""src"":""stims_ani/sup5.jpg"",""x"":500,""y"":221}]","[{""src"":""stims_ani/sub2.jpg"",""x"":68,""y"":171},{""src"":""stims_ani/sup3.jpg"",""x"":594,""y"":410},{""src"":""stims_ani/bas4.jpg"",""x"":275,""y"":491},{""src"":""stims_ani/sup6.jpg"",""x"":601,""y"":193},{""src"":""stims_ani/bas2.jpg"",""x"":169,""y"":488},{""src"":""stims_ani/sup2.jpg"",""x"":602,""y"":296},{""src"":""stims_ani/bas3.jpg"",""x"":56,""y"":390},{""src"":""stims_ani/sup1.jpg"",""x"":425,""y"":68},{""src"":""stims_ani/sup5.jpg"",""x"":500,""y"":221},{""src"":""stims_ani/sub4.jpg"",""x"":178,""y"":283},{""src"":""stims_ani/sub3.jpg"",""x"":264,""y"":296},{""src"":""stims_ani/bas1.jpg"",""x"":189,""y"":162},{""src"":""stims_ani/sub5.jpg"",""x"":60,""y"":282},{""src"":""stims_ani/sup4.jpg"",""x"":518,""y"":108},{""src"":""stims_ani/sub1.jpg"",""x"":177,""y"":383}]",stims_ani,NA,NA,/Users/martincz/GitHub/cat-act/data/free-sort/raw/catact-free-sort_PARTICIPANT_SESSION_2023-09-27_10h55.55.218.csv,19
free-sort,10,189279,0.0-10.0,ZvmgvOMCatActImUQZBQlLBbQ,p949692,076d4ae9-1d81-4eff-8850-8afaec0d02bb,1ef6de3e-19b6-47a8-be24-a54e1292a88d,NA,NA,NA,NA,NA,NA,24531.400000095367,"[{""src"":""stims_air/sup4.jpg"",""x"":830.4000000000001,""y"":0},{""src"":""stims_air/bas1.jpg"",""x"":-130.40000000000003,""y"":600},{""src"":""stims_air/sup1.jpg"",""x"":830.4000000000001,""y"":200},{""src"":""stims_air/sup5.jpg"",""x"":-130.40000000000003,""y"":400},{""src"":""stims_air/sup2.jpg"",""x"":830.4000000000001,""y"":400},{""src"":""stims_air/sub1.jpg"",""x"":-130.40000000000003,""y"":200},{""src"":""stims_air/sup6.jpg"",""x"":830.4000000000001,""y"":600},{""src"":""stims_air/sub4.jpg"",""x"":-130.40000000000003,""y"":0},{""src"":""stims_air/bas2.jpg"",""x"":970.4000000000001,""y"":0},{""src"":""stims_air/bas3.jpg"",""x"":-270.40000000000003,""y"":600},{""src"":""stims_air/sub5.jpg"",""x"":970.4000000000001,""y"":200},{""src"":""stims_air/sub3.jpg"",""x"":-270.40000000000003,""y"":400},{""src"":""stims_air/bas4.jpg"",""x"":970.4000000000001,""y"":400},{""src"":""stims_air/sub2.jpg"",""x"":-270.40000000000003,""y"":200},{""src"":""stims_air/sup3.jpg"",""x"":970.4000000000001,""y"":600}]","[{""src"":""stims_air/sub4.jpg"",""x"":211,""y"":100},{""src"":""stims_air/sub1.jpg"",""x"":118,""y"":178},{""src"":""stims_air/sub2.jpg"",""x"":192,""y"":229},{""src"":""stims_air/sub3.jpg"",""x"":73,""y"":285},{""src"":""stims_air/bas1.jpg"",""x"":105,""y"":404},{""src"":""stims_air/bas3.jpg"",""x"":194,""y"":337},{""src"":""stims_air/sup5.jpg"",""x"":629,""y"":285},{""src"":""stims_air/sup1.jpg"",""x"":599,""y"":182},{""src"":""stims_air/sup6.jpg"",""x"":661,""y"":407},{""src"":""stims_air/sup2.jpg"",""x"":572,""y"":360},{""src"":""stims_air/sup6.jpg"",""x"":607,""y"":414},{""src"":""stims_air/bas4.jpg"",""x"":187,""y"":481},{""src"":""stims_air/sub5.jpg"",""x"":279,""y"":62},{""src"":""stims_air/sup4.jpg"",""x"":295,""y"":173},{""src"":""stims_air/bas2.jpg"",""x"":275,""y"":286},{""src"":""stims_air/sup3.jpg"",""x"":521,""y"":281}]","[{""src"":""stims_air/sup4.jpg"",""x"":295,""y"":173},{""src"":""stims_air/bas1.jpg"",""x"":105,""y"":404},{""src"":""stims_air/sup1.jpg"",""x"":599,""y"":182},{""src"":""stims_air/sup5.jpg"",""x"":629,""y"":285},{""src"":""stims_air/sup2.jpg"",""x"":572,""y"":360},{""src"":""stims_air/sub1.jpg"",""x"":118,""y"":178},{""src"":""stims_air/sup6.jpg"",""x"":607,""y"":414},{""src"":""stims_air/sub4.jpg"",""x"":211,""y"":100},{""src"":""stims_air/bas2.jpg"",""x"":275,""y"":286},{""src"":""stims_air/bas3.jpg"",""x"":194,""y"":337},{""src"":""stims_air/sub5.jpg"",""x"":279,""y"":62},{""src"":""stims_air/sub3.jpg"",""x"":73,""y"":285},{""src"":""stims_air/bas4.jpg"",""x"":187,""y"":481},{""src"":""stims_air/sub2.jpg"",""x"":192,""y"":229},{""src"":""stims_air/sup3.jpg"",""x"":521,""y"":281}]",stims_air,NA,NA,/Users/martincz/GitHub/cat-act/data/free-sort/raw/catact-free-sort_PARTICIPANT_SESSION_2023-09-27_10h55.55.218.csv,19
