"trial_type","trial_index","time_elapsed","internal_node_id","code","subject","workerId","hitId","assignmentId","success","timeout","failed_images","failed_audio","failed_video","view_history","rt","init_locations","moves","final_locations","stim_category","response","question_order"
"pavlovia","0","64","0.0-0.0","nZxLFNiCatActImXUqWkJLAyt","p281715","0E0EA61A1F324F61BC7BE508D0BF50FF","076d4ae9-1d81-4eff-8850-8afaec0d02bb","387d9231-9fef-4d91-a232-a353558bf1e4","","","","","","","","","","","","",""
"preload","1","15086","0.0-1.0","nZxLFNiCatActImXUqWkJLAyt","p281715","0E0EA61A1F324F61BC7BE508D0BF50FF","076d4ae9-1d81-4eff-8850-8afaec0d02bb","387d9231-9fef-4d91-a232-a353558bf1e4","false","true","[]","[]","[]","","","","","","","",""
"fullscreen","2","19657","0.0-2.0","nZxLFNiCatActImXUqWkJLAyt","p281715","0E0EA61A1F324F61BC7BE508D0BF50FF","076d4ae9-1d81-4eff-8850-8afaec0d02bb","387d9231-9fef-4d91-a232-a353558bf1e4","true","","","","","","","","","","","",""
"instructions","3","73713","0.0-3.0","nZxLFNiCatActImXUqWkJLAyt","p281715","0E0EA61A1F324F61BC7BE508D0BF50FF","076d4ae9-1d81-4eff-8850-8afaec0d02bb","387d9231-9fef-4d91-a232-a353558bf1e4","","","","","","[{""page_index"":0,""viewing_time"":19580.099999904633},{""page_index"":1,""viewing_time"":12949.400000095367},{""page_index"":2,""viewing_time"":16644.099999904633},{""page_index"":3,""viewing_time"":4872}]","54047.699999928474","","","","","",""
"free-sort","4","105958","0.0-4.0","nZxLFNiCatActImXUqWkJLAyt","p281715","0E0EA61A1F324F61BC7BE508D0BF50FF","076d4ae9-1d81-4eff-8850-8afaec0d02bb","387d9231-9fef-4d91-a232-a353558bf1e4","","","","","","","32241","[{""src"":""images/house_1.jpg"",""x"":877.0666666666667,""y"":0},{""src"":""images/house_2.jpg"",""x"":-177.0666666666667,""y"":600},{""src"":""images/house_3.jpg"",""x"":877.0666666666667,""y"":600},{""src"":""images/cottage.jpg"",""x"":-177.0666666666667,""y"":0}]","[{""src"":""images/house_1.jpg"",""x"":127,""y"":436},{""src"":""images/house_3.jpg"",""x"":224,""y"":502},{""src"":""images/house_2.jpg"",""x"":254,""y"":309},{""src"":""images/cottage.jpg"",""x"":505,""y"":78}]","[{""src"":""images/house_1.jpg"",""x"":127,""y"":436},{""src"":""images/house_2.jpg"",""x"":254,""y"":309},{""src"":""images/house_3.jpg"",""x"":224,""y"":502},{""src"":""images/cottage.jpg"",""x"":505,""y"":78}]","practice_1","",""
"free-sort","5","143615","0.0-5.0","nZxLFNiCatActImXUqWkJLAyt","p281715","0E0EA61A1F324F61BC7BE508D0BF50FF","076d4ae9-1d81-4eff-8850-8afaec0d02bb","387d9231-9fef-4d91-a232-a353558bf1e4","","","","","","","37654.800000071526","[{""src"":""images/screwdriver_2.jpg"",""x"":877.0666666666667,""y"":0},{""src"":""images/microphone.jpg"",""x"":-177.0666666666667,""y"":600},{""src"":""images/screwdriver_1.jpg"",""x"":877.0666666666667,""y"":300},{""src"":""images/hammer_2.jpg"",""x"":-177.0666666666667,""y"":300},{""src"":""images/hammer_1.jpg"",""x"":877.0666666666667,""y"":600}]","[{""src"":""images/screwdriver_1.jpg"",""x"":126,""y"":405},{""src"":""images/screwdriver_2.jpg"",""x"":224,""y"":496},{""src"":""images/hammer_1.jpg"",""x"":408,""y"":431},{""src"":""images/hammer_2.jpg"",""x"":319,""y"":330},{""src"":""images/microphone.jpg"",""x"":446,""y"":44}]","[{""src"":""images/screwdriver_2.jpg"",""x"":224,""y"":496},{""src"":""images/microphone.jpg"",""x"":446,""y"":44},{""src"":""images/screwdriver_1.jpg"",""x"":126,""y"":405},{""src"":""images/hammer_2.jpg"",""x"":319,""y"":330},{""src"":""images/hammer_1.jpg"",""x"":408,""y"":431}]","practice_2","",""
"free-sort","6","323859","0.0-6.0","nZxLFNiCatActImXUqWkJLAyt","p281715","0E0EA61A1F324F61BC7BE508D0BF50FF","076d4ae9-1d81-4eff-8850-8afaec0d02bb","387d9231-9fef-4d91-a232-a353558bf1e4","","","","","","","180239.60000002384","[{""src"":""stims_ani/sup6.jpg"",""x"":830.4000000000001,""y"":0},{""src"":""stims_ani/bas1.jpg"",""x"":-130.40000000000003,""y"":600},{""src"":""stims_ani/sup1.jpg"",""x"":830.4000000000001,""y"":200},{""src"":""stims_ani/sup5.jpg"",""x"":-130.40000000000003,""y"":400},{""src"":""stims_ani/sub5.jpg"",""x"":830.4000000000001,""y"":400},{""src"":""stims_ani/sub2.jpg"",""x"":-130.40000000000003,""y"":200},{""src"":""stims_ani/bas4.jpg"",""x"":830.4000000000001,""y"":600},{""src"":""stims_ani/sup3.jpg"",""x"":-130.40000000000003,""y"":0},{""src"":""stims_ani/sub4.jpg"",""x"":970.4000000000001,""y"":0},{""src"":""stims_ani/bas3.jpg"",""x"":-270.40000000000003,""y"":600},{""src"":""stims_ani/bas2.jpg"",""x"":970.4000000000001,""y"":200},{""src"":""stims_ani/sup4.jpg"",""x"":-270.40000000000003,""y"":400},{""src"":""stims_ani/sup2.jpg"",""x"":970.4000000000001,""y"":400},{""src"":""stims_ani/sub1.jpg"",""x"":-270.40000000000003,""y"":200},{""src"":""stims_ani/sub3.jpg"",""x"":970.4000000000001,""y"":600}]","[{""src"":""stims_ani/sub2.jpg"",""x"":371,""y"":539},{""src"":""stims_ani/sub4.jpg"",""x"":467,""y"":444},{""src"":""stims_ani/sub1.jpg"",""x"":266,""y"":465},{""src"":""stims_ani/sub3.jpg"",""x"":353,""y"":379},{""src"":""stims_ani/sub5.jpg"",""x"":144,""y"":457},{""src"":""stims_ani/bas1.jpg"",""x"":598,""y"":408},{""src"":""stims_ani/sub4.jpg"",""x"":56,""y"":358},{""src"":""stims_ani/sub1.jpg"",""x"":271,""y"":502},{""src"":""stims_ani/sub5.jpg"",""x"":167,""y"":495},{""src"":""stims_ani/sub4.jpg"",""x"":78,""y"":411},{""src"":""stims_ani/sub3.jpg"",""x"":369,""y"":420},{""src"":""stims_ani/bas1.jpg"",""x"":518,""y"":501},{""src"":""stims_ani/bas4.jpg"",""x"":624,""y"":385},{""src"":""stims_ani/bas2.jpg"",""x"":510,""y"":374},{""src"":""stims_ani/bas3.jpg"",""x"":380,""y"":295},{""src"":""stims_ani/sub3.jpg"",""x"":228,""y"":381},{""src"":""stims_ani/bas3.jpg"",""x"":406,""y"":418},{""src"":""stims_ani/bas2.jpg"",""x"":522,""y"":352},{""src"":""stims_ani/bas2.jpg"",""x"":522,""y"":352},{""src"":""stims_ani/bas4.jpg"",""x"":630,""y"":404},{""src"":""stims_ani/sup3.jpg"",""x"":266,""y"":52},{""src"":""stims_ani/sup6.jpg"",""x"":550,""y"":104},{""src"":""stims_ani/sup5.jpg"",""x"":-137,""y"":398},{""src"":""stims_ani/sup2.jpg"",""x"":65,""y"":206},{""src"":""stims_ani/sup3.jpg"",""x"":222,""y"":54},{""src"":""stims_ani/sup6.jpg"",""x"":440,""y"":47},{""src"":""stims_ani/sup5.jpg"",""x"":590,""y"":138},{""src"":""stims_ani/bas2.jpg"",""x"":523,""y"":383},{""src"":""stims_ani/bas3.jpg"",""x"":406,""y"":438},{""src"":""stims_ani/bas2.jpg"",""x"":522,""y"":395},{""src"":""stims_ani/bas1.jpg"",""x"":509,""y"":519},{""src"":""stims_ani/bas4.jpg"",""x"":619,""y"":445},{""src"":""stims_ani/sup4.jpg"",""x"":267,""y"":188},{""src"":""stims_ani/sup1.jpg"",""x"":436,""y"":212},{""src"":""stims_ani/sup4.jpg"",""x"":262,""y"":209},{""src"":""stims_ani/sup1.jpg"",""x"":462,""y"":232},{""src"":""stims_ani/sup5.jpg"",""x"":634,""y"":186},{""src"":""stims_ani/sup1.jpg"",""x"":456,""y"":204},{""src"":""stims_ani/sup2.jpg"",""x"":66,""y"":192},{""src"":""stims_ani/sup4.jpg"",""x"":279,""y"":173},{""src"":""stims_ani/sup3.jpg"",""x"":253,""y"":25},{""src"":""stims_ani/sup4.jpg"",""x"":262,""y"":159},{""src"":""stims_ani/sup1.jpg"",""x"":449,""y"":187},{""src"":""stims_ani/sup5.jpg"",""x"":581,""y"":117},{""src"":""stims_ani/sup4.jpg"",""x"":262,""y"":242},{""src"":""stims_ani/sup1.jpg"",""x"":428,""y"":170},{""src"":""stims_ani/sup2.jpg"",""x"":74,""y"":170},{""src"":""stims_ani/sup1.jpg"",""x"":465,""y"":239}]","[{""src"":""stims_ani/sup6.jpg"",""x"":440,""y"":47},{""src"":""stims_ani/bas1.jpg"",""x"":509,""y"":519},{""src"":""stims_ani/sup1.jpg"",""x"":465,""y"":239},{""src"":""stims_ani/sup5.jpg"",""x"":581,""y"":117},{""src"":""stims_ani/sub5.jpg"",""x"":167,""y"":495},{""src"":""stims_ani/sub2.jpg"",""x"":371,""y"":539},{""src"":""stims_ani/bas4.jpg"",""x"":619,""y"":445},{""src"":""stims_ani/sup3.jpg"",""x"":253,""y"":25},{""src"":""stims_ani/sub4.jpg"",""x"":78,""y"":411},{""src"":""stims_ani/bas3.jpg"",""x"":406,""y"":438},{""src"":""stims_ani/bas2.jpg"",""x"":522,""y"":395},{""src"":""stims_ani/sup4.jpg"",""x"":262,""y"":242},{""src"":""stims_ani/sup2.jpg"",""x"":74,""y"":170},{""src"":""stims_ani/sub1.jpg"",""x"":271,""y"":502},{""src"":""stims_ani/sub3.jpg"",""x"":228,""y"":381}]","stims_ani","",""
"free-sort","7","540259","0.0-7.0","nZxLFNiCatActImXUqWkJLAyt","p281715","0E0EA61A1F324F61BC7BE508D0BF50FF","076d4ae9-1d81-4eff-8850-8afaec0d02bb","387d9231-9fef-4d91-a232-a353558bf1e4","","","","","","","216392.60000002384","[{""src"":""stims_air/sup1.jpg"",""x"":830.4000000000001,""y"":0},{""src"":""stims_air/bas3.jpg"",""x"":-130.40000000000003,""y"":600},{""src"":""stims_air/bas1.jpg"",""x"":830.4000000000001,""y"":200},{""src"":""stims_air/sub1.jpg"",""x"":-130.40000000000003,""y"":400},{""src"":""stims_air/sup3.jpg"",""x"":830.4000000000001,""y"":400},{""src"":""stims_air/sup6.jpg"",""x"":-130.40000000000003,""y"":200},{""src"":""stims_air/bas2.jpg"",""x"":830.4000000000001,""y"":600},{""src"":""stims_air/sub5.jpg"",""x"":-130.40000000000003,""y"":0},{""src"":""stims_air/sup2.jpg"",""x"":970.4000000000001,""y"":0},{""src"":""stims_air/sup4.jpg"",""x"":-270.40000000000003,""y"":600},{""src"":""stims_air/sub3.jpg"",""x"":970.4000000000001,""y"":200},{""src"":""stims_air/bas4.jpg"",""x"":-270.40000000000003,""y"":400},{""src"":""stims_air/sup5.jpg"",""x"":970.4000000000001,""y"":400},{""src"":""stims_air/sub2.jpg"",""x"":-270.40000000000003,""y"":200},{""src"":""stims_air/sub4.jpg"",""x"":970.4000000000001,""y"":600}]","[{""src"":""stims_air/sub2.jpg"",""x"":231,""y"":530},{""src"":""stims_air/sup3.jpg"",""x"":549,""y"":121},{""src"":""stims_air/sup2.jpg"",""x"":639,""y"":220},{""src"":""stims_air/sub3.jpg"",""x"":629,""y"":402},{""src"":""stims_air/sub2.jpg"",""x"":545,""y"":492},{""src"":""stims_air/sub5.jpg"",""x"":516,""y"":390},{""src"":""stims_air/sub5.jpg"",""x"":499,""y"":387},{""src"":""stims_air/sub4.jpg"",""x"":440,""y"":552},{""src"":""stims_air/sub2.jpg"",""x"":562,""y"":500},{""src"":""stims_air/sub4.jpg"",""x"":455,""y"":554},{""src"":""stims_air/sub5.jpg"",""x"":508,""y"":396},{""src"":""stims_air/sub1.jpg"",""x"":412,""y"":460},{""src"":""stims_air/sup5.jpg"",""x"":209,""y"":72},{""src"":""stims_air/sup6.jpg"",""x"":45,""y"":180},{""src"":""stims_air/sup5.jpg"",""x"":154,""y"":449},{""src"":""stims_air/sup6.jpg"",""x"":164,""y"":88},{""src"":""stims_air/sup5.jpg"",""x"":326,""y"":34},{""src"":""stims_air/sup5.jpg"",""x"":124,""y"":422},{""src"":""stims_air/sup6.jpg"",""x"":332,""y"":17},{""src"":""stims_air/sup5.jpg"",""x"":221,""y"":97},{""src"":""stims_air/sup1.jpg"",""x"":420,""y"":115},{""src"":""stims_air/sup3.jpg"",""x"":76,""y"":210},{""src"":""stims_air/sup2.jpg"",""x"":160,""y"":290},{""src"":""stims_air/sub3.jpg"",""x"":633,""y"":185},{""src"":""stims_air/sub5.jpg"",""x"":545,""y"":253},{""src"":""stims_air/sub1.jpg"",""x"":668,""y"":302},{""src"":""stims_air/sub2.jpg"",""x"":529,""y"":167},{""src"":""stims_air/sup1.jpg"",""x"":338,""y"":153},{""src"":""stims_air/sub2.jpg"",""x"":491,""y"":151},{""src"":""stims_air/sub4.jpg"",""x"":569,""y"":356},{""src"":""stims_air/sup4.jpg"",""x"":302,""y"":552},{""src"":""stims_air/bas2.jpg"",""x"":440,""y"":481},{""src"":""stims_air/sup4.jpg"",""x"":318,""y"":546},{""src"":""stims_air/bas2.jpg"",""x"":422,""y"":474},{""src"":""stims_air/bas1.jpg"",""x"":350,""y"":304},{""src"":""stims_air/sup3.jpg"",""x"":84,""y"":189},{""src"":""stims_air/sup2.jpg"",""x"":30,""y"":296},{""src"":""stims_air/bas3.jpg"",""x"":260,""y"":379},{""src"":""stims_air/bas2.jpg"",""x"":440,""y"":485},{""src"":""stims_air/bas1.jpg"",""x"":387,""y"":340},{""src"":""stims_air/bas3.jpg"",""x"":277,""y"":396},{""src"":""stims_air/bas4.jpg"",""x"":283,""y"":275},{""src"":""stims_air/sup4.jpg"",""x"":242,""y"":548},{""src"":""stims_air/bas2.jpg"",""x"":424,""y"":545},{""src"":""stims_air/sup4.jpg"",""x"":298,""y"":575},{""src"":""stims_air/bas2.jpg"",""x"":418,""y"":578},{""src"":""stims_air/bas3.jpg"",""x"":224,""y"":403},{""src"":""stims_air/bas3.jpg"",""x"":224,""y"":403},{""src"":""stims_air/bas1.jpg"",""x"":377,""y"":396},{""src"":""stims_air/bas4.jpg"",""x"":294,""y"":309},{""src"":""stims_air/sup2.jpg"",""x"":31,""y"":326},{""src"":""stims_air/sup3.jpg"",""x"":121,""y"":221},{""src"":""stims_air/sub4.jpg"",""x"":581,""y"":413},{""src"":""stims_air/sub1.jpg"",""x"":671,""y"":341},{""src"":""stims_air/sub5.jpg"",""x"":554,""y"":289},{""src"":""stims_air/sub3.jpg"",""x"":663,""y"":214},{""src"":""stims_air/sub2.jpg"",""x"":536,""y"":169},{""src"":""stims_air/sup1.jpg"",""x"":463,""y"":101},{""src"":""stims_air/sub2.jpg"",""x"":445,""y"":223},{""src"":""stims_air/sub5.jpg"",""x"":548,""y"":262},{""src"":""stims_air/sub4.jpg"",""x"":553,""y"":377},{""src"":""stims_air/sup2.jpg"",""x"":59,""y"":329},{""src"":""stims_air/sup3.jpg"",""x"":102,""y"":208},{""src"":""stims_air/sup1.jpg"",""x"":535,""y"":106},{""src"":""stims_air/sup1.jpg"",""x"":542,""y"":105},{""src"":""stims_air/sup6.jpg"",""x"":359,""y"":7},{""src"":""stims_air/sup1.jpg"",""x"":507,""y"":90},{""src"":""stims_air/sup5.jpg"",""x"":226,""y"":93}]","[{""src"":""stims_air/sup1.jpg"",""x"":507,""y"":90},{""src"":""stims_air/bas3.jpg"",""x"":224,""y"":403},{""src"":""stims_air/bas1.jpg"",""x"":377,""y"":396},{""src"":""stims_air/sub1.jpg"",""x"":671,""y"":341},{""src"":""stims_air/sup3.jpg"",""x"":102,""y"":208},{""src"":""stims_air/sup6.jpg"",""x"":359,""y"":7},{""src"":""stims_air/bas2.jpg"",""x"":418,""y"":578},{""src"":""stims_air/sub5.jpg"",""x"":548,""y"":262},{""src"":""stims_air/sup2.jpg"",""x"":59,""y"":329},{""src"":""stims_air/sup4.jpg"",""x"":298,""y"":575},{""src"":""stims_air/sub3.jpg"",""x"":663,""y"":214},{""src"":""stims_air/bas4.jpg"",""x"":294,""y"":309},{""src"":""stims_air/sup5.jpg"",""x"":226,""y"":93},{""src"":""stims_air/sub2.jpg"",""x"":445,""y"":223},{""src"":""stims_air/sub4.jpg"",""x"":553,""y"":377}]","stims_air","",""
"free-sort","8","683033","0.0-8.0","nZxLFNiCatActImXUqWkJLAyt","p281715","0E0EA61A1F324F61BC7BE508D0BF50FF","076d4ae9-1d81-4eff-8850-8afaec0d02bb","387d9231-9fef-4d91-a232-a353558bf1e4","","","","","","","142769.90000009537","[{""src"":""stims_pla/sub1.jpg"",""x"":830.4000000000001,""y"":0},{""src"":""stims_pla/sup7.jpg"",""x"":-130.40000000000003,""y"":600},{""src"":""stims_pla/sup1.jpg"",""x"":830.4000000000001,""y"":150},{""src"":""stims_pla/sup6.jpg"",""x"":-130.40000000000003,""y"":450},{""src"":""stims_pla/sup4.jpg"",""x"":830.4000000000001,""y"":300},{""src"":""stims_pla/bas1.jpg"",""x"":-130.40000000000003,""y"":300},{""src"":""stims_pla/sup8.jpg"",""x"":830.4000000000001,""y"":450},{""src"":""stims_pla/sub2.jpg"",""x"":-130.40000000000003,""y"":150},{""src"":""stims_pla/sup2.jpg"",""x"":830.4000000000001,""y"":600},{""src"":""stims_pla/sup3.jpg"",""x"":-130.40000000000003,""y"":0},{""src"":""stims_pla/sub3.jpg"",""x"":970.4000000000001,""y"":0},{""src"":""stims_pla/sub5.jpg"",""x"":-270.40000000000003,""y"":600},{""src"":""stims_pla/bas4.jpg"",""x"":970.4000000000001,""y"":150},{""src"":""stims_pla/bas2.jpg"",""x"":-270.40000000000003,""y"":450},{""src"":""stims_pla/bas3.jpg"",""x"":970.4000000000001,""y"":300},{""src"":""stims_pla/sub4.jpg"",""x"":-270.40000000000003,""y"":300},{""src"":""stims_pla/sup5.jpg"",""x"":970.4000000000001,""y"":450}]","[{""src"":""stims_pla/sub2.jpg"",""x"":326,""y"":22},{""src"":""stims_pla/sub1.jpg"",""x"":422,""y"":72},{""src"":""stims_pla/sub2.jpg"",""x"":215,""y"":184},{""src"":""stims_pla/sub1.jpg"",""x"":594,""y"":146},{""src"":""stims_pla/sub5.jpg"",""x"":339,""y"":28},{""src"":""stims_pla/sub3.jpg"",""x"":440,""y"":72},{""src"":""stims_pla/sub1.jpg"",""x"":243,""y"":86},{""src"":""stims_pla/sub4.jpg"",""x"":317,""y"":177},{""src"":""stims_pla/sub3.jpg"",""x"":449,""y"":48},{""src"":""stims_pla/sub1.jpg"",""x"":232,""y"":45},{""src"":""stims_pla/sub4.jpg"",""x"":366,""y"":133},{""src"":""stims_pla/sub2.jpg"",""x"":244,""y"":178},{""src"":""stims_pla/sub2.jpg"",""x"":244,""y"":178},{""src"":""stims_pla/sub2.jpg"",""x"":254,""y"":152},{""src"":""stims_pla/sub2.jpg"",""x"":255,""y"":141},{""src"":""stims_pla/sup1.jpg"",""x"":597,""y"":465},{""src"":""stims_pla/sup4.jpg"",""x"":454,""y"":554},{""src"":""stims_pla/sup7.jpg"",""x"":477,""y"":432},{""src"":""stims_pla/bas1.jpg"",""x"":111,""y"":173},{""src"":""stims_pla/bas2.jpg"",""x"":215,""y"":269},{""src"":""stims_pla/bas4.jpg"",""x"":571,""y"":125},{""src"":""stims_pla/bas3.jpg"",""x"":456,""y"":254},{""src"":""stims_pla/bas4.jpg"",""x"":616,""y"":148},{""src"":""stims_pla/sub3.jpg"",""x"":474,""y"":42},{""src"":""stims_pla/sub4.jpg"",""x"":378,""y"":147},{""src"":""stims_pla/sub2.jpg"",""x"":274,""y"":158},{""src"":""stims_pla/sub4.jpg"",""x"":413,""y"":148},{""src"":""stims_pla/sub2.jpg"",""x"":290,""y"":136},{""src"":""stims_pla/sub4.jpg"",""x"":405,""y"":149},{""src"":""stims_pla/bas4.jpg"",""x"":571,""y"":159},{""src"":""stims_pla/bas2.jpg"",""x"":291,""y"":251},{""src"":""stims_pla/bas1.jpg"",""x"":126,""y"":200},{""src"":""stims_pla/sup2.jpg"",""x"":153,""y"":303},{""src"":""stims_pla/bas1.jpg"",""x"":158,""y"":169},{""src"":""stims_pla/sup2.jpg"",""x"":157,""y"":284},{""src"":""stims_pla/sup5.jpg"",""x"":612,""y"":305},{""src"":""stims_pla/sup3.jpg"",""x"":256,""y"":440},{""src"":""stims_pla/sup2.jpg"",""x"":58,""y"":238},{""src"":""stims_pla/bas1.jpg"",""x"":167,""y"":163},{""src"":""stims_pla/sup3.jpg"",""x"":89,""y"":392},{""src"":""stims_pla/sup6.jpg"",""x"":250,""y"":387},{""src"":""stims_pla/sup8.jpg"",""x"":311,""y"":506}]","[{""src"":""stims_pla/sub1.jpg"",""x"":232,""y"":45},{""src"":""stims_pla/sup7.jpg"",""x"":477,""y"":432},{""src"":""stims_pla/sup1.jpg"",""x"":597,""y"":465},{""src"":""stims_pla/sup6.jpg"",""x"":250,""y"":387},{""src"":""stims_pla/sup4.jpg"",""x"":454,""y"":554},{""src"":""stims_pla/bas1.jpg"",""x"":167,""y"":163},{""src"":""stims_pla/sup8.jpg"",""x"":311,""y"":506},{""src"":""stims_pla/sub2.jpg"",""x"":290,""y"":136},{""src"":""stims_pla/sup2.jpg"",""x"":58,""y"":238},{""src"":""stims_pla/sup3.jpg"",""x"":89,""y"":392},{""src"":""stims_pla/sub3.jpg"",""x"":474,""y"":42},{""src"":""stims_pla/sub5.jpg"",""x"":339,""y"":28},{""src"":""stims_pla/bas4.jpg"",""x"":571,""y"":159},{""src"":""stims_pla/bas2.jpg"",""x"":291,""y"":251},{""src"":""stims_pla/bas3.jpg"",""x"":456,""y"":254},{""src"":""stims_pla/sub4.jpg"",""x"":405,""y"":149},{""src"":""stims_pla/sup5.jpg"",""x"":612,""y"":305}]","stims_pla","",""
"free-sort","9","896492","0.0-9.0","nZxLFNiCatActImXUqWkJLAyt","p281715","0E0EA61A1F324F61BC7BE508D0BF50FF","076d4ae9-1d81-4eff-8850-8afaec0d02bb","387d9231-9fef-4d91-a232-a353558bf1e4","","","","","","","213453.70000004768","[{""src"":""stims_veg/sub3.jpg"",""x"":830.4000000000001,""y"":0},{""src"":""stims_veg/sub5.jpg"",""x"":-130.40000000000003,""y"":600},{""src"":""stims_veg/bas1.jpg"",""x"":830.4000000000001,""y"":200},{""src"":""stims_veg/sup4.jpg"",""x"":-130.40000000000003,""y"":400},{""src"":""stims_veg/sup1.jpg"",""x"":830.4000000000001,""y"":400},{""src"":""stims_veg/sub1.jpg"",""x"":-130.40000000000003,""y"":200},{""src"":""stims_veg/sup6.jpg"",""x"":830.4000000000001,""y"":600},{""src"":""stims_veg/sup2.jpg"",""x"":-130.40000000000003,""y"":0},{""src"":""stims_veg/sup5.jpg"",""x"":970.4000000000001,""y"":0},{""src"":""stims_veg/bas4.jpg"",""x"":-270.40000000000003,""y"":600},{""src"":""stims_veg/bas3.jpg"",""x"":970.4000000000001,""y"":200},{""src"":""stims_veg/bas2.jpg"",""x"":-270.40000000000003,""y"":400},{""src"":""stims_veg/sub4.jpg"",""x"":970.4000000000001,""y"":400},{""src"":""stims_veg/sup3.jpg"",""x"":-270.40000000000003,""y"":200},{""src"":""stims_veg/sub2.jpg"",""x"":970.4000000000001,""y"":600}]","[{""src"":""stims_veg/sub3.jpg"",""x"":448,""y"":43},{""src"":""stims_veg/sub1.jpg"",""x"":322,""y"":32},{""src"":""stims_veg/sub4.jpg"",""x"":211,""y"":96},{""src"":""stims_veg/sub1.jpg"",""x"":140,""y"":137},{""src"":""stims_veg/sub4.jpg"",""x"":350,""y"":42},{""src"":""stims_veg/sub1.jpg"",""x"":219,""y"":60},{""src"":""stims_veg/sub2.jpg"",""x"":123,""y"":121},{""src"":""stims_veg/sub1.jpg"",""x"":247,""y"":76},{""src"":""stims_veg/sub3.jpg"",""x"":469,""y"":110},{""src"":""stims_veg/sub4.jpg"",""x"":353,""y"":16},{""src"":""stims_veg/sub3.jpg"",""x"":450,""y"":55},{""src"":""stims_veg/sub1.jpg"",""x"":240,""y"":36},{""src"":""stims_veg/sub2.jpg"",""x"":142,""y"":100},{""src"":""stims_veg/sub5.jpg"",""x"":274,""y"":152},{""src"":""stims_veg/bas2.jpg"",""x"":394,""y"":158},{""src"":""stims_veg/bas4.jpg"",""x"":552,""y"":88},{""src"":""stims_veg/bas2.jpg"",""x"":462,""y"":165},{""src"":""stims_veg/sub5.jpg"",""x"":280,""y"":167},{""src"":""stims_veg/bas4.jpg"",""x"":140,""y"":225},{""src"":""stims_veg/sub3.jpg"",""x"":457,""y"":29},{""src"":""stims_veg/sub5.jpg"",""x"":339,""y"":454},{""src"":""stims_veg/bas2.jpg"",""x"":474,""y"":383},{""src"":""stims_veg/sub1.jpg"",""x"":228,""y"":38},{""src"":""stims_veg/sub4.jpg"",""x"":337,""y"":34},{""src"":""stims_veg/sub4.jpg"",""x"":337,""y"":34},{""src"":""stims_veg/sub1.jpg"",""x"":554,""y"":111},{""src"":""stims_veg/sub4.jpg"",""x"":262,""y"":27},{""src"":""stims_veg/sub3.jpg"",""x"":384,""y"":24},{""src"":""stims_veg/sub1.jpg"",""x"":492,""y"":81},{""src"":""stims_veg/sub2.jpg"",""x"":385,""y"":134},{""src"":""stims_veg/sub5.jpg"",""x"":272,""y"":139},{""src"":""stims_veg/bas4.jpg"",""x"":190,""y"":188},{""src"":""stims_veg/bas4.jpg"",""x"":190,""y"":188},{""src"":""stims_veg/bas2.jpg"",""x"":346,""y"":239},{""src"":""stims_veg/bas1.jpg"",""x"":497,""y"":200},{""src"":""stims_veg/bas3.jpg"",""x"":596,""y"":183},{""src"":""stims_veg/sub1.jpg"",""x"":485,""y"":77},{""src"":""stims_veg/bas4.jpg"",""x"":156,""y"":144},{""src"":""stims_veg/bas2.jpg"",""x"":70,""y"":179},{""src"":""stims_veg/bas4.jpg"",""x"":160,""y"":129},{""src"":""stims_veg/bas2.jpg"",""x"":77,""y"":172},{""src"":""stims_veg/sup5.jpg"",""x"":595,""y"":328},{""src"":""stims_veg/sup3.jpg"",""x"":444,""y"":342},{""src"":""stims_veg/sup1.jpg"",""x"":110,""y"":456},{""src"":""stims_veg/sup3.jpg"",""x"":220,""y"":281},{""src"":""stims_veg/sup5.jpg"",""x"":408,""y"":335},{""src"":""stims_veg/sup6.jpg"",""x"":621,""y"":441},{""src"":""stims_veg/sup2.jpg"",""x"":461,""y"":525},{""src"":""stims_veg/sup6.jpg"",""x"":640,""y"":398},{""src"":""stims_veg/sup2.jpg"",""x"":224,""y"":536},{""src"":""stims_veg/sup1.jpg"",""x"":65,""y"":449},{""src"":""stims_veg/sup1.jpg"",""x"":65,""y"":449},{""src"":""stims_veg/sup2.jpg"",""x"":264,""y"":554},{""src"":""stims_veg/sup4.jpg"",""x"":514,""y"":525},{""src"":""stims_veg/sup6.jpg"",""x"":678,""y"":380},{""src"":""stims_veg/sup3.jpg"",""x"":206,""y"":312},{""src"":""stims_veg/sup5.jpg"",""x"":369,""y"":317},{""src"":""stims_veg/sup4.jpg"",""x"":507,""y"":325},{""src"":""stims_veg/sup5.jpg"",""x"":502,""y"":556},{""src"":""stims_veg/sup6.jpg"",""x"":659,""y"":363},{""src"":""stims_veg/sup4.jpg"",""x"":366,""y"":298},{""src"":""stims_veg/sup6.jpg"",""x"":637,""y"":440},{""src"":""stims_veg/sup3.jpg"",""x"":439,""y"":459},{""src"":""stims_veg/sup1.jpg"",""x"":199,""y"":271},{""src"":""stims_veg/sup1.jpg"",""x"":159,""y"":339},{""src"":""stims_veg/sup1.jpg"",""x"":49,""y"":332},{""src"":""stims_veg/sup4.jpg"",""x"":213,""y"":310},{""src"":""stims_veg/sup2.jpg"",""x"":406,""y"":340},{""src"":""stims_veg/sup3.jpg"",""x"":193,""y"":523},{""src"":""stims_veg/sup2.jpg"",""x"":431,""y"":374},{""src"":""stims_veg/sup5.jpg"",""x"":371,""y"":568},{""src"":""stims_veg/sup6.jpg"",""x"":562,""y"":509},{""src"":""stims_veg/sup4.jpg"",""x"":295,""y"":296},{""src"":""stims_veg/sup2.jpg"",""x"":663,""y"":352},{""src"":""stims_veg/sup4.jpg"",""x"":348,""y"":339},{""src"":""stims_veg/sup1.jpg"",""x"":192,""y"":308},{""src"":""stims_veg/sup3.jpg"",""x"":33,""y"":326},{""src"":""stims_veg/sup4.jpg"",""x"":418,""y"":359},{""src"":""stims_veg/sup1.jpg"",""x"":230,""y"":386},{""src"":""stims_veg/sup6.jpg"",""x"":204,""y"":561},{""src"":""stims_veg/sup5.jpg"",""x"":537,""y"":539},{""src"":""stims_veg/sup1.jpg"",""x"":219,""y"":340},{""src"":""stims_veg/sup6.jpg"",""x"":192,""y"":544},{""src"":""stims_veg/sup5.jpg"",""x"":480,""y"":554},{""src"":""stims_veg/sup4.jpg"",""x"":409,""y"":331}]","[{""src"":""stims_veg/sub3.jpg"",""x"":384,""y"":24},{""src"":""stims_veg/sub5.jpg"",""x"":272,""y"":139},{""src"":""stims_veg/bas1.jpg"",""x"":497,""y"":200},{""src"":""stims_veg/sup4.jpg"",""x"":409,""y"":331},{""src"":""stims_veg/sup1.jpg"",""x"":219,""y"":340},{""src"":""stims_veg/sub1.jpg"",""x"":485,""y"":77},{""src"":""stims_veg/sup6.jpg"",""x"":192,""y"":544},{""src"":""stims_veg/sup2.jpg"",""x"":663,""y"":352},{""src"":""stims_veg/sup5.jpg"",""x"":480,""y"":554},{""src"":""stims_veg/bas4.jpg"",""x"":160,""y"":129},{""src"":""stims_veg/bas3.jpg"",""x"":596,""y"":183},{""src"":""stims_veg/bas2.jpg"",""x"":77,""y"":172},{""src"":""stims_veg/sub4.jpg"",""x"":262,""y"":27},{""src"":""stims_veg/sup3.jpg"",""x"":33,""y"":326},{""src"":""stims_veg/sub2.jpg"",""x"":385,""y"":134}]","stims_veg","",""
"free-sort","10","1089652","0.0-10.0","nZxLFNiCatActImXUqWkJLAyt","p281715","0E0EA61A1F324F61BC7BE508D0BF50FF","076d4ae9-1d81-4eff-8850-8afaec0d02bb","387d9231-9fef-4d91-a232-a353558bf1e4","","","","","","","193154.5","[{""src"":""stims_sta/bas2.jpg"",""x"":830.4000000000001,""y"":0},{""src"":""stims_sta/sup6.jpg"",""x"":-130.40000000000003,""y"":600},{""src"":""stims_sta/sub4.jpg"",""x"":830.4000000000001,""y"":200},{""src"":""stims_sta/sup2.jpg"",""x"":-130.40000000000003,""y"":400},{""src"":""stims_sta/sub5.jpg"",""x"":830.4000000000001,""y"":400},{""src"":""stims_sta/bas4.jpg"",""x"":-130.40000000000003,""y"":200},{""src"":""stims_sta/sup1.jpg"",""x"":830.4000000000001,""y"":600},{""src"":""stims_sta/bas1.jpg"",""x"":-130.40000000000003,""y"":0},{""src"":""stims_sta/sup3.jpg"",""x"":970.4000000000001,""y"":0},{""src"":""stims_sta/sub2.jpg"",""x"":-270.40000000000003,""y"":600},{""src"":""stims_sta/bas3.jpg"",""x"":970.4000000000001,""y"":200},{""src"":""stims_sta/sub1.jpg"",""x"":-270.40000000000003,""y"":400},{""src"":""stims_sta/sub3.jpg"",""x"":970.4000000000001,""y"":400},{""src"":""stims_sta/sup4.jpg"",""x"":-270.40000000000003,""y"":200},{""src"":""stims_sta/sup5.jpg"",""x"":970.4000000000001,""y"":600}]","[{""src"":""stims_sta/bas2.jpg"",""x"":343,""y"":38},{""src"":""stims_sta/sup1.jpg"",""x"":469,""y"":67},{""src"":""stims_sta/bas2.jpg"",""x"":281,""y"":33},{""src"":""stims_sta/sup1.jpg"",""x"":415,""y"":51},{""src"":""stims_sta/bas2.jpg"",""x"":294,""y"":33},{""src"":""stims_sta/sup6.jpg"",""x"":183,""y"":59},{""src"":""stims_sta/sup1.jpg"",""x"":404,""y"":22},{""src"":""stims_sta/sup1.jpg"",""x"":372,""y"":239},{""src"":""stims_sta/bas2.jpg"",""x"":348,""y"":14},{""src"":""stims_sta/sup1.jpg"",""x"":471,""y"":47},{""src"":""stims_sta/sup6.jpg"",""x"":222,""y"":36},{""src"":""stims_sta/sub4.jpg"",""x"":600,""y"":158},{""src"":""stims_sta/sub5.jpg"",""x"":664,""y"":234},{""src"":""stims_sta/sub3.jpg"",""x"":501,""y"":180},{""src"":""stims_sta/sub1.jpg"",""x"":532,""y"":278},{""src"":""stims_sta/sub2.jpg"",""x"":637,""y"":338},{""src"":""stims_sta/bas3.jpg"",""x"":73,""y"":185},{""src"":""stims_sta/bas4.jpg"",""x"":188,""y"":174},{""src"":""stims_sta/bas1.jpg"",""x"":334,""y"":176},{""src"":""stims_sta/bas1.jpg"",""x"":334,""y"":176},{""src"":""stims_sta/bas4.jpg"",""x"":181,""y"":177},{""src"":""stims_sta/bas3.jpg"",""x"":66,""y"":190},{""src"":""stims_sta/sup3.jpg"",""x"":329,""y"":346},{""src"":""stims_sta/sup2.jpg"",""x"":201,""y"":338},{""src"":""stims_sta/sup5.jpg"",""x"":444,""y"":514},{""src"":""stims_sta/sup3.jpg"",""x"":339,""y"":418},{""src"":""stims_sta/sup2.jpg"",""x"":203,""y"":433},{""src"":""stims_sta/sup4.jpg"",""x"":88,""y"":415},{""src"":""stims_sta/sup5.jpg"",""x"":511,""y"":518},{""src"":""stims_sta/sup3.jpg"",""x"":368,""y"":439},{""src"":""stims_sta/sup2.jpg"",""x"":244,""y"":379},{""src"":""stims_sta/sup5.jpg"",""x"":211,""y"":547},{""src"":""stims_sta/sup3.jpg"",""x"":369,""y"":550},{""src"":""stims_sta/sup4.jpg"",""x"":69,""y"":471},{""src"":""stims_sta/sup2.jpg"",""x"":280,""y"":427},{""src"":""stims_sta/bas1.jpg"",""x"":297,""y"":279},{""src"":""stims_sta/bas3.jpg"",""x"":70,""y"":247},{""src"":""stims_sta/bas3.jpg"",""x"":48,""y"":249},{""src"":""stims_sta/bas4.jpg"",""x"":141,""y"":166},{""src"":""stims_sta/bas1.jpg"",""x"":254,""y"":266},{""src"":""stims_sta/sub1.jpg"",""x"":424,""y"":255},{""src"":""stims_sta/sub2.jpg"",""x"":558,""y"":277},{""src"":""stims_sta/sub2.jpg"",""x"":565,""y"":299},{""src"":""stims_sta/sub2.jpg"",""x"":561,""y"":369},{""src"":""stims_sta/sub5.jpg"",""x"":682,""y"":339},{""src"":""stims_sta/sub1.jpg"",""x"":459,""y"":314},{""src"":""stims_sta/sub4.jpg"",""x"":651,""y"":235},{""src"":""stims_sta/sub3.jpg"",""x"":533,""y"":233},{""src"":""stims_sta/bas2.jpg"",""x"":531,""y"":108},{""src"":""stims_sta/sup1.jpg"",""x"":336,""y"":22},{""src"":""stims_sta/bas2.jpg"",""x"":501,""y"":70},{""src"":""stims_sta/sub3.jpg"",""x"":517,""y"":193},{""src"":""stims_sta/sub4.jpg"",""x"":627,""y"":173},{""src"":""stims_sta/sub1.jpg"",""x"":483,""y"":286},{""src"":""stims_sta/sub5.jpg"",""x"":677,""y"":277},{""src"":""stims_sta/sub2.jpg"",""x"":588,""y"":310},{""src"":""stims_sta/bas2.jpg"",""x"":516,""y"":59},{""src"":""stims_sta/sup1.jpg"",""x"":398,""y"":20},{""src"":""stims_sta/sup6.jpg"",""x"":260,""y"":28},{""src"":""stims_sta/bas2.jpg"",""x"":391,""y"":136},{""src"":""stims_sta/sup6.jpg"",""x"":231,""y"":28},{""src"":""stims_sta/sup1.jpg"",""x"":351,""y"":24},{""src"":""stims_sta/sup6.jpg"",""x"":235,""y"":36},{""src"":""stims_sta/sup3.jpg"",""x"":440,""y"":553},{""src"":""stims_sta/sup2.jpg"",""x"":340,""y"":430},{""src"":""stims_sta/sup5.jpg"",""x"":266,""y"":569},{""src"":""stims_sta/sup4.jpg"",""x"":152,""y"":473}]","[{""src"":""stims_sta/bas2.jpg"",""x"":391,""y"":136},{""src"":""stims_sta/sup6.jpg"",""x"":235,""y"":36},{""src"":""stims_sta/sub4.jpg"",""x"":627,""y"":173},{""src"":""stims_sta/sup2.jpg"",""x"":340,""y"":430},{""src"":""stims_sta/sub5.jpg"",""x"":677,""y"":277},{""src"":""stims_sta/bas4.jpg"",""x"":141,""y"":166},{""src"":""stims_sta/sup1.jpg"",""x"":351,""y"":24},{""src"":""stims_sta/bas1.jpg"",""x"":254,""y"":266},{""src"":""stims_sta/sup3.jpg"",""x"":440,""y"":553},{""src"":""stims_sta/sub2.jpg"",""x"":588,""y"":310},{""src"":""stims_sta/bas3.jpg"",""x"":48,""y"":249},{""src"":""stims_sta/sub1.jpg"",""x"":483,""y"":286},{""src"":""stims_sta/sub3.jpg"",""x"":517,""y"":193},{""src"":""stims_sta/sup4.jpg"",""x"":152,""y"":473},{""src"":""stims_sta/sup5.jpg"",""x"":266,""y"":569}]","stims_sta","",""
"free-sort","11","1270282","0.0-11.0","nZxLFNiCatActImXUqWkJLAyt","p281715","0E0EA61A1F324F61BC7BE508D0BF50FF","076d4ae9-1d81-4eff-8850-8afaec0d02bb","387d9231-9fef-4d91-a232-a353558bf1e4","","","","","","","180624","[{""src"":""stims_spo/sup5.jpg"",""x"":830.4000000000001,""y"":0},{""src"":""stims_spo/sub2.jpg"",""x"":-130.40000000000003,""y"":600},{""src"":""stims_spo/sub1.jpg"",""x"":830.4000000000001,""y"":200},{""src"":""stims_spo/sup1.jpg"",""x"":-130.40000000000003,""y"":400},{""src"":""stims_spo/sub4.jpg"",""x"":830.4000000000001,""y"":400},{""src"":""stims_spo/sup2.jpg"",""x"":-130.40000000000003,""y"":200},{""src"":""stims_spo/sub3.jpg"",""x"":830.4000000000001,""y"":600},{""src"":""stims_spo/bas2.jpg"",""x"":-130.40000000000003,""y"":0},{""src"":""stims_spo/bas3.jpg"",""x"":970.4000000000001,""y"":0},{""src"":""stims_spo/sub5.jpg"",""x"":-270.40000000000003,""y"":600},{""src"":""stims_spo/sup6.jpg"",""x"":970.4000000000001,""y"":200},{""src"":""stims_spo/bas4.jpg"",""x"":-270.40000000000003,""y"":400},{""src"":""stims_spo/sup4.jpg"",""x"":970.4000000000001,""y"":400},{""src"":""stims_spo/sup3.jpg"",""x"":-270.40000000000003,""y"":200},{""src"":""stims_spo/bas1.jpg"",""x"":970.4000000000001,""y"":600}]","[{""src"":""stims_spo/sub1.jpg"",""x"":609,""y"":464},{""src"":""stims_spo/sub4.jpg"",""x"":656,""y"":361},{""src"":""stims_spo/sub2.jpg"",""x"":516,""y"":535},{""src"":""stims_spo/sub5.jpg"",""x"":505,""y"":430},{""src"":""stims_spo/sub3.jpg"",""x"":409,""y"":571},{""src"":""stims_spo/bas1.jpg"",""x"":641,""y"":214},{""src"":""stims_spo/bas2.jpg"",""x"":575,""y"":92},{""src"":""stims_spo/sup4.jpg"",""x"":151,""y"":503},{""src"":""stims_spo/bas4.jpg"",""x"":276,""y"":561},{""src"":""stims_spo/sup4.jpg"",""x"":179,""y"":501},{""src"":""stims_spo/bas2.jpg"",""x"":490,""y"":294},{""src"":""stims_spo/sup5.jpg"",""x"":195,""y"":160},{""src"":""stims_spo/sup2.jpg"",""x"":355,""y"":192},{""src"":""stims_spo/sup3.jpg"",""x"":74,""y"":258},{""src"":""stims_spo/sup2.jpg"",""x"":451,""y"":93},{""src"":""stims_spo/sup5.jpg"",""x"":320,""y"":57},{""src"":""stims_spo/sup2.jpg"",""x"":434,""y"":115},{""src"":""stims_spo/sup5.jpg"",""x"":243,""y"":43},{""src"":""stims_spo/sup2.jpg"",""x"":381,""y"":58},{""src"":""stims_spo/sup3.jpg"",""x"":107,""y"":159},{""src"":""stims_spo/sup4.jpg"",""x"":138,""y"":471},{""src"":""stims_spo/bas4.jpg"",""x"":263,""y"":524},{""src"":""stims_spo/sup4.jpg"",""x"":162,""y"":478},{""src"":""stims_spo/bas3.jpg"",""x"":347,""y"":382},{""src"":""stims_spo/sup1.jpg"",""x"":253,""y"":283},{""src"":""stims_spo/sup1.jpg"",""x"":248,""y"":263},{""src"":""stims_spo/bas3.jpg"",""x"":337,""y"":357},{""src"":""stims_spo/sup3.jpg"",""x"":82,""y"":364},{""src"":""stims_spo/sup5.jpg"",""x"":86,""y"":263},{""src"":""stims_spo/sup2.jpg"",""x"":156,""y"":147},{""src"":""stims_spo/sup1.jpg"",""x"":362,""y"":246},{""src"":""stims_spo/bas3.jpg"",""x"":373,""y"":349},{""src"":""stims_spo/sup1.jpg"",""x"":268,""y"":311},{""src"":""stims_spo/sup2.jpg"",""x"":204,""y"":71},{""src"":""stims_spo/sup5.jpg"",""x"":303,""y"":27},{""src"":""stims_spo/sup3.jpg"",""x"":45,""y"":267},{""src"":""stims_spo/sup2.jpg"",""x"":153,""y"":116},{""src"":""stims_spo/sup5.jpg"",""x"":245,""y"":60},{""src"":""stims_spo/sup6.jpg"",""x"":417,""y"":27},{""src"":""stims_spo/sup3.jpg"",""x"":51,""y"":314},{""src"":""stims_spo/sup2.jpg"",""x"":112,""y"":169},{""src"":""stims_spo/sup5.jpg"",""x"":55,""y"":306},{""src"":""stims_spo/sup3.jpg"",""x"":245,""y"":36},{""src"":""stims_spo/sup5.jpg"",""x"":25,""y"":353},{""src"":""stims_spo/sup2.jpg"",""x"":73,""y"":176},{""src"":""stims_spo/sup5.jpg"",""x"":26,""y"":278},{""src"":""stims_spo/sup5.jpg"",""x"":135,""y"":276},{""src"":""stims_spo/sup2.jpg"",""x"":42,""y"":213},{""src"":""stims_spo/bas3.jpg"",""x"":362,""y"":343},{""src"":""stims_spo/sup1.jpg"",""x"":287,""y"":237},{""src"":""stims_spo/bas2.jpg"",""x"":528,""y"":299},{""src"":""stims_spo/bas3.jpg"",""x"":380,""y"":344}]","[{""src"":""stims_spo/sup5.jpg"",""x"":135,""y"":276},{""src"":""stims_spo/sub2.jpg"",""x"":516,""y"":535},{""src"":""stims_spo/sub1.jpg"",""x"":609,""y"":464},{""src"":""stims_spo/sup1.jpg"",""x"":287,""y"":237},{""src"":""stims_spo/sub4.jpg"",""x"":656,""y"":361},{""src"":""stims_spo/sup2.jpg"",""x"":42,""y"":213},{""src"":""stims_spo/sub3.jpg"",""x"":409,""y"":571},{""src"":""stims_spo/bas2.jpg"",""x"":528,""y"":299},{""src"":""stims_spo/bas3.jpg"",""x"":380,""y"":344},{""src"":""stims_spo/sub5.jpg"",""x"":505,""y"":430},{""src"":""stims_spo/sup6.jpg"",""x"":417,""y"":27},{""src"":""stims_spo/bas4.jpg"",""x"":263,""y"":524},{""src"":""stims_spo/sup4.jpg"",""x"":162,""y"":478},{""src"":""stims_spo/sup3.jpg"",""x"":245,""y"":36},{""src"":""stims_spo/bas1.jpg"",""x"":641,""y"":214}]","stims_spo","",""
"survey-text","12","1275184","0.0-12.0-0.0","nZxLFNiCatActImXUqWkJLAyt","p281715","0E0EA61A1F324F61BC7BE508D0BF50FF","076d4ae9-1d81-4eff-8850-8afaec0d02bb","387d9231-9fef-4d91-a232-a353558bf1e4","","","","","","","4888.700000047684","","","","","{""age"":""66""}",""
"survey-text","13","1282373","0.0-12.0-1.0","nZxLFNiCatActImXUqWkJLAyt","p281715","0E0EA61A1F324F61BC7BE508D0BF50FF","076d4ae9-1d81-4eff-8850-8afaec0d02bb","387d9231-9fef-4d91-a232-a353558bf1e4","","","","","","","7182.5","","","","","{""gender"":""female""}",""
"survey-text","14","1292035","0.0-12.0-2.0","nZxLFNiCatActImXUqWkJLAyt","p281715","0E0EA61A1F324F61BC7BE508D0BF50FF","076d4ae9-1d81-4eff-8850-8afaec0d02bb","387d9231-9fef-4d91-a232-a353558bf1e4","","","","","","","9654.700000047684","","","","","{""country"":""United States""}",""
"survey-text","15","1298207","0.0-12.0-3.0","nZxLFNiCatActImXUqWkJLAyt","p281715","0E0EA61A1F324F61BC7BE508D0BF50FF","076d4ae9-1d81-4eff-8850-8afaec0d02bb","387d9231-9fef-4d91-a232-a353558bf1e4","","","","","","","6164","","","","","{""language"":""English"",""other_languages"":""""}",""
"survey-multi-select","16","1301184","0.0-13.0","nZxLFNiCatActImXUqWkJLAyt","p281715","0E0EA61A1F324F61BC7BE508D0BF50FF","076d4ae9-1d81-4eff-8850-8afaec0d02bb","387d9231-9fef-4d91-a232-a353558bf1e4","","","","","","","2968.1999999284744","","","","","{""race"":[""White""]}","[0]"
"survey-multi-choice","17","1311698","0.0-14.0","nZxLFNiCatActImXUqWkJLAyt","p281715","0E0EA61A1F324F61BC7BE508D0BF50FF","076d4ae9-1d81-4eff-8850-8afaec0d02bb","387d9231-9fef-4d91-a232-a353558bf1e4","","","","","","","10509.399999976158","","","","","{""education"":""Other professional degree""}","[0]"
"survey-text","18","1318030","0.0-15.0","nZxLFNiCatActImXUqWkJLAyt","p281715","0E0EA61A1F324F61BC7BE508D0BF50FF","076d4ae9-1d81-4eff-8850-8afaec0d02bb","387d9231-9fef-4d91-a232-a353558bf1e4","","","","","","","6233.5","","","","","{""issues"":""none"",""comments"":""""}",""
